trial_id,strategy_family,universe,pair_or_basket,method,signal,hedge_method,execution_mode,passive_fill_prob,adverse_selection_bps,entry_z,exit_z,max_hold,z_stop,beta,adf_p,ou_half_life_minutes,validation_gross_bps,validation_cost_bps,validation_net_bps,validation_trades,validation_cost_share,test_gross_bps,test_cost_bps,test_net_bps,test_trades,test_cost_share,test_2x_cost_net_bps,test_latency1_net_bps,sharpe,dsr_pvalue,selected_flag,gate_selected_flag,skip_reason
0,pair_trading,XLK_top20_cleaned,XLK-NVDA,baseline,zscore,ols,aggressive_cross,0.0,0.0,1.0,0.5,120.0,4.0,0.3337749645659467,0.46185850937126405,162.55641808859653,214.40417233031545,283.9078262664404,-69.50365393612486,98.0,1.3241711818417703,-77.7918831264246,1238.4717708068667,-1316.2636539332916,355.0,15.920321260177577,-2554.735424740158,-1466.7731782318601,-5.6327970938572545,1.0,False,False,
1,pair_trading,XLK_top20_cleaned,XLK-NVDA,baseline,zscore,ols,aggressive_cross,0.0,0.0,1.0,0.5,120.0,,0.3337749645659467,0.46185850937126405,162.55641808859653,214.40417233031545,283.9078262664404,-69.50365393612486,98.0,1.3241711818417703,-45.78539867596883,961.9282871077988,-1007.7136857837677,281.0,21.009498987123198,-1969.6419728915662,-1225.6270044224548,-4.3303740198365155,1.0,False,False,
2,pair_trading,XLK_top20_cleaned,XLK-NVDA,baseline,zscore,ols,aggressive_cross,0.0,0.0,1.5,0.5,120.0,4.0,0.3337749645659467,0.46185850937126405,162.55641808859653,-94.89034490479526,221.70542867944442,-316.5957735842397,50.0,2.3364382214216253,-262.7986747651014,818.9969697144044,-1081.795644479506,249.0,3.116442540840255,-1900.79261419391,-1145.4680461964026,-5.427749752220726,1.0,False,False,
3,pair_trading,XLK_top20_cleaned,XLK-NVDA,baseline,zscore,ols,aggressive_cross,0.0,0.0,1.5,0.5,120.0,,0.3337749645659467,0.46185850937126405,162.55641808859653,-94.89034490479526,221.70542867944442,-316.5957735842397,50.0,2.3364382214216253,-230.79219031464558,542.4534860153364,-773.2456763299821,175.0,2.3503979284385403,-1315.6991623453184,-904.3218723869973,-3.9020077548290777,1.0,False,False,
4,pair_trading,XLK_top20_cleaned,XLK-NVDA,baseline,zscore,ols,aggressive_cross,0.0,0.0,2.0,0.5,120.0,4.0,0.3337749645659467,0.46185850937126405,162.55641808859653,36.689104694404755,98.77589291158331,-62.086788217178494,36.0,2.6922404821354786,-524.6634684299216,564.0108896561833,-1088.674358086105,177.0,1.0749955420834054,-1652.6852477422879,-1006.2143502984876,-6.7348488369669255,1.0,True,False,
5,pair_trading,XLK_top20_cleaned,XLK-NVDA,baseline,zscore,ols,aggressive_cross,0.0,0.0,2.0,0.5,120.0,,0.3337749645659467,0.46185850937126405,162.55641808859653,36.689104694404755,98.77589291158331,-62.086788217178494,36.0,2.6922404821354786,-492.65698397946574,287.4674059571152,-780.1243899365809,103.0,0.5835041728934407,-1067.5917958936961,-765.0681764890822,-4.868546813990948,1.0,False,False,
6,pair_trading,XLK_top20_cleaned,XLK-AAPL,baseline,zscore,ols,aggressive_cross,0.0,0.0,1.0,0.5,120.0,4.0,0.13016682388301618,0.189768076937123,238.85365754927724,-283.7884420028184,226.93441657175725,-510.7228585745753,90.0,0.7996605322266912,-841.9279023639336,770.1515475914993,-1612.0794499554331,293.0,0.9147476231980156,-2382.230997546932,-1826.4035731484762,-5.693570931952728,1.0,False,False,
7,pair_trading,XLK_top20_cleaned,XLK-AAPL,baseline,zscore,ols,aggressive_cross,0.0,0.0,1.0,0.5,120.0,,0.13016682388301618,0.189768076937123,238.85365754927724,-283.7884420028184,226.93441657175725,-510.7228585745753,90.0,0.7996605322266912,-841.9279023639336,770.1515475914993,-1612.0794499554331,293.0,0.9147476231980156,-2382.230997546932,-1826.4035731484762,-5.693570931952728,1.0,False,False,
8,pair_trading,XLK_top20_cleaned,XLK-AAPL,baseline,zscore,ols,aggressive_cross,0.0,0.0,1.5,0.5,120.0,4.0,0.13016682388301618,0.189768076937123,238.85365754927724,-81.43224161352192,176.44795525518705,-257.880196868709,66.0,2.166807050364774,-186.81578941349346,598.966627823426,-785.7824172369196,207.0,3.206188458180524,-1384.7490450603457,-709.1442018592649,-3.181314222022728,1.0,False,False,
9,pair_trading,XLK_top20_cleaned,XLK-AAPL,baseline,zscore,ols,aggressive_cross,0.0,0.0,1.5,0.5,120.0,,0.13016682388301618,0.189768076937123,238.85365754927724,-81.43224161352192,176.44795525518705,-257.880196868709,66.0,2.166807050364774,-186.81578941349346,598.966627823426,-785.7824172369196,207.0,3.206188458180524,-1384.7490450603457,-709.1442018592649,-3.181314222022728,1.0,False,False,
10,pair_trading,XLK_top20_cleaned,XLK-AAPL,baseline,zscore,ols,aggressive_cross,0.0,0.0,2.0,0.5,120.0,4.0,0.13016682388301618,0.189768076937123,238.85365754927724,220.50197021209559,76.23550416414997,144.2664660479455,36.0,0.34573615868747504,1.4570540840266704,290.42631554856285,-288.96926146453626,100.0,199.32432071838372,-579.395577013099,-321.87293122938223,-1.5456626526417823,1.0,True,False,
11,pair_trading,XLK_top20_cleaned,XLK-AAPL,baseline,zscore,ols,aggressive_cross,0.0,0.0,2.0,0.5,120.0,,0.13016682388301618,0.189768076937123,238.85365754927724,220.50197021209559,76.23550416414997,144.2664660479455,36.0,0.34573615868747504,1.4570540840266704,290.42631554856285,-288.96926146453626,100.0,199.32432071838372,-579.395577013099,-321.87293122938223,-1.5456626526417823,1.0,False,False,
12,pair_trading,XLK_top20_cleaned,XLK-MSFT,baseline,zscore,ols,aggressive_cross,0.0,0.0,1.0,0.5,120.0,4.0,0.09890189312907406,0.2977819522775341,241.53562168395032,-280.6928138059828,240.28675724317125,-520.979571049154,92.0,0.8560488385330002,-873.1255514267878,782.5770539728877,-1655.7026053996753,299.0,0.8962938407816226,-2438.279659372563,-1835.7124100664562,-5.852471838338634,1.0,False,False,
13,pair_trading,XLK_top20_cleaned,XLK-MSFT,baseline,zscore,ols,aggressive_cross,0.0,0.0,1.0,0.5,120.0,,0.09890189312907406,0.2977819522775341,241.53562168395032,-259.0364212650945,215.234810018777,-474.2712312838715,88.0,0.830905588363223,-873.1255514267878,782.5770539728877,-1655.7026053996753,299.0,0.8962938407816226,-2438.279659372563,-1835.7124100664562,-5.852471838338634,1.0,False,False,
14,pair_trading,XLK_top20_cleaned,XLK-MSFT,baseline,zscore,ols,aggressive_cross,0.0,0.0,1.5,0.5,120.0,4.0,0.09890189312907406,0.2977819522775341,241.53562168395032,-50.7475453000826,159.8653936479537,-210.6129389480363,64.0,3.150209388505999,-107.76874314368627,523.9895531307636,-631.7582962744501,201.0,4.862166318782591,-1155.7478494052139,-661.3414993471855,-2.5906973870115224,1.0,False,False,
15,pair_trading,XLK_top20_cleaned,XLK-MSFT,baseline,zscore,ols,aggressive_cross,0.0,0.0,1.5,0.5,120.0,,0.09890189312907406,0.2977819522775341,241.53562168395032,-45.60612510995286,140.91841660647685,-186.52454171642975,60.0,3.089901110141091,-107.76874314368627,523.9895531307636,-631.7582962744501,201.0,4.862166318782591,-1155.7478494052139,-661.3414993471855,-2.5906973870115224,1.0,False,False,
16,pair_trading,XLK_top20_cleaned,XLK-MSFT,baseline,zscore,ols,aggressive_cross,0.0,0.0,2.0,0.5,120.0,4.0,0.09890189312907406,0.2977819522775341,241.53562168395032,24.211320320274737,92.86873899619522,-68.65741867592052,36.0,3.8357569008091748,-60.31170447018588,249.25607962561222,-309.5677840957982,110.0,4.132797801276333,-558.8238637214104,-357.33234580323915,-1.6036897838531863,1.0,False,False,
17,pair_trading,XLK_top20_cleaned,XLK-MSFT,baseline,zscore,ols,aggressive_cross,0.0,0.0,2.0,0.5,120.0,,0.09890189312907406,0.2977819522775341,241.53562168395032,22.78183622256208,65.29524338294816,-42.51340716038617,30.0,2.8661097703038863,-60.31170447018588,249.25607962561222,-309.5677840957982,110.0,4.132797801276333,-558.8238637214104,-357.33234580323915,-1.6036897838531863,1.0,True,False,
18,pair_trading,XLK_top20_cleaned,XLK-AVGO,baseline,zscore,ols,aggressive_cross,0.0,0.0,1.0,0.5,120.0,4.0,0.1460693017072228,0.0768712027156273,199.77179405295615,-140.5658691376556,401.48083198417095,-542.0467011218266,106.0,2.85617578753063,-325.7188043366097,966.0283495637559,-1291.7471539003652,299.0,2.965835366893423,-2257.7755034641214,-1739.8572338237695,-4.837357686610835,1.0,False,False,
19,pair_trading,XLK_top20_cleaned,XLK-AVGO,baseline,zscore,ols,aggressive_cross,0.0,0.0,1.0,0.5,120.0,,0.1460693017072228,0.0768712027156273,199.77179405295615,-68.89619046122688,327.4074488024216,-396.3036392636484,96.0,4.752185086150425,-325.7188043366097,966.0283495637559,-1291.7471539003652,299.0,2.965835366893423,-2257.7755034641214,-1739.8572338237695,-4.837357686610835,1.0,False,False,
20,pair_trading,XLK_top20_cleaned,XLK-AVGO,baseline,zscore,ols,aggressive_cross,0.0,0.0,1.5,0.5,120.0,4.0,0.1460693017072228,0.0768712027156273,199.77179405295615,-117.06412145203898,304.6383790430177,-421.7025004950567,76.0,2.6023206364541647,85.37450187067843,620.0306669826348,-534.6561651119562,203.0,7.262480639967073,-1154.686832094591,-920.4213634584822,-2.3125114423789443,1.0,False,False,
21,pair_trading,XLK_top20_cleaned,XLK-AVGO,baseline,zscore,ols,aggressive_cross,0.0,0.0,1.5,0.5,120.0,,0.1460693017072228,0.0768712027156273,199.77179405295615,-92.22015302183195,232.7864123411421,-325.0065653629741,66.0,2.5242466501441707,85.37450187067843,620.0306669826348,-534.6561651119562,203.0,7.262480639967073,-1154.686832094591,-920.4213634584822,-2.3125114423789443,1.0,False,False,
22,pair_trading,XLK_top20_cleaned,XLK-AVGO,baseline,zscore,ols,aggressive_cross,0.0,0.0,2.0,0.5,120.0,4.0,0.1460693017072228,0.0768712027156273,199.77179405295615,-154.0420638425558,181.5313166750599,-335.57338051761576,50.0,1.1784528988173029,-8.078529212347929,279.95367983615733,-288.03220904850514,115.0,34.654040664760075,-567.9858888846625,-416.4583351449617,-1.5683661041942498,1.0,False,False,
23,pair_trading,XLK_top20_cleaned,XLK-AVGO,baseline,zscore,ols,aggressive_cross,0.0,0.0,2.0,0.5,120.0,,0.1460693017072228,0.0768712027156273,199.77179405295615,-97.5604582771365,116.98109629546755,-214.54155457260399,40.0,1.1990625952490253,-8.078529212347929,279.95367983615733,-288.03220904850514,115.0,34.654040664760075,-567.9858888846625,-416.4583351449617,-1.5683661041942498,1.0,True,False,
24,pair_trading,XLK_top20_cleaned,XLK-MU,baseline,zscore,ols,aggressive_cross,0.0,0.0,1.0,0.5,120.0,4.0,0.1582443979810445,0.7709219780992628,188.88487227975978,66.80261493999814,376.01661190225315,-309.213996962255,96.0,5.6287708533564125,-824.3769089549575,1052.5410334286819,-1876.9179423836395,295.0,1.2767716101642907,-2929.458975812322,-2210.202034549631,-7.184308026798019,1.0,False,False,
25,pair_trading,XLK_top20_cleaned,XLK-MU,baseline,zscore,ols,aggressive_cross,0.0,0.0,1.0,0.5,120.0,,0.1582443979810445,0.7709219780992628,188.88487227975978,66.80261493999814,376.01661190225315,-309.213996962255,96.0,5.6287708533564125,-824.3769089549575,1052.5410334286819,-1876.9179423836395,295.0,1.2767716101642907,-2929.458975812322,-2210.202034549631,-7.184308026798019,1.0,False,False,
26,pair_trading,XLK_top20_cleaned,XLK-MU,baseline,zscore,ols,aggressive_cross,0.0,0.0,1.5,0.5,120.0,4.0,0.1582443979810445,0.7709219780992628,188.88487227975978,-209.700136110627,211.66708332009696,-421.367219430724,60.0,1.00937980893075,-706.6236388564301,819.7608068812428,-1526.3844457376726,217.0,1.1601095148867495,-2346.145252618916,-1631.6179449098445,-6.527216351437351,1.0,False,False,
27,pair_trading,XLK_top20_cleaned,XLK-MU,baseline,zscore,ols,aggressive_cross,0.0,0.0,1.5,0.5,120.0,,0.1582443979810445,0.7709219780992628,188.88487227975978,-209.700136110627,211.66708332009696,-421.367219430724,60.0,1.00937980893075,-706.6236388564301,819.7608068812428,-1526.3844457376726,217.0,1.1601095148867495,-2346.145252618916,-1631.6179449098445,-6.527216351437351,1.0,False,False,
28,pair_trading,XLK_top20_cleaned,XLK-MU,baseline,zscore,ols,aggressive_cross,0.0,0.0,2.0,0.5,120.0,4.0,0.1582443979810445,0.7709219780992628,188.88487227975978,-8.988055498133466,142.15382674090029,-151.1418822390338,44.0,15.815859923252713,-314.6799390833782,366.86313786377866,-681.5430769471567,99.0,1.1658294422339197,-1048.4062148109354,-744.6802860463333,-3.965421505553822,1.0,True,False,
29,pair_trading,XLK_top20_cleaned,XLK-MU,baseline,zscore,ols,aggressive_cross,0.0,0.0,2.0,0.5,120.0,,0.1582443979810445,0.7709219780992628,188.88487227975978,-8.988055498133466,142.15382674090029,-151.1418822390338,44.0,15.815859923252713,-314.6799390833782,366.86313786377866,-681.5430769471567,99.0,1.1658294422339197,-1048.4062148109354,-744.6802860463333,-3.965421505553822,1.0,False,False,
30,pair_trading,XLK_top20_cleaned,XLK-AMD,baseline,zscore,ols,aggressive_cross,0.0,0.0,1.0,0.5,120.0,4.0,0.14474834488538607,0.13917399440730255,195.91361381431693,-13.783676206866343,307.4043244953721,-321.1880007022386,102.0,22.302056423977703,-35.57576282989323,890.332258403985,-925.9080212338779,299.0,25.0263715401168,-1816.2402796378628,-1139.368727957735,-3.5150926954951074,1.0,False,False,
31,pair_trading,XLK_top20_cleaned,XLK-AMD,baseline,zscore,ols,aggressive_cross,0.0,0.0,1.0,0.5,120.0,,0.14474834488538607,0.13917399440730255,195.91361381431693,15.495079915534959,282.7165968004979,-267.2215168849631,96.0,18.245572035872733,-35.57576282989323,890.332258403985,-925.9080212338779,299.0,25.0263715401168,-1816.2402796378628,-1139.368727957735,-3.5150926954951074,1.0,False,False,
32,pair_trading,XLK_top20_cleaned,XLK-AMD,baseline,zscore,ols,aggressive_cross,0.0,0.0,1.5,0.5,120.0,4.0,0.14474834488538607,0.13917399440730255,195.91361381431693,170.79062558268478,209.7949930964476,-39.004367513762844,66.0,1.2283753419175787,58.745470873780185,636.3657289384214,-577.6202580646412,198.0,10.832592189203984,-1213.9859870030627,-653.4152317511124,-2.564914080371244,1.0,False,False,
33,pair_trading,XLK_top20_cleaned,XLK-AMD,baseline,zscore,ols,aggressive_cross,0.0,0.0,1.5,0.5,120.0,,0.14474834488538607,0.13917399440730255,195.91361381431693,181.67671848260582,188.58570940523435,-6.908990922628553,60.0,1.038029038504953,58.745470873780185,636.3657289384214,-577.6202580646412,198.0,10.832592189203984,-1213.9859870030627,-653.4152317511124,-2.564914080371244,1.0,True,False,
34,pair_trading,XLK_top20_cleaned,XLK-AMD,baseline,zscore,ols,aggressive_cross,0.0,0.0,2.0,0.5,120.0,4.0,0.14474834488538607,0.13917399440730255,195.91361381431693,4.402269998569612,125.17161096794617,-120.76934096937651,40.0,28.43342434894202,111.07990722996153,321.7482403157794,-210.66833308581778,102.0,2.8965476145896023,-532.4165734015971,-198.18077119778252,-1.2248723797782122,1.0,False,False,
35,pair_trading,XLK_top20_cleaned,XLK-AMD,baseline,zscore,ols,aggressive_cross,0.0,0.0,2.0,0.5,120.0,,0.14474834488538607,0.13917399440730255,195.91361381431693,6.409214797127999,91.94661017853134,-85.53739538140339,32.0,14.346002293406219,111.07990722996153,321.7482403157794,-210.66833308581778,102.0,2.8965476145896023,-532.4165734015971,-198.18077119778252,-1.2248723797782122,1.0,False,False,
36,pair_trading,XLK_top20_cleaned,XLK-INTC,baseline,zscore,ols,aggressive_cross,0.0,0.0,1.0,0.5,120.0,4.0,0.183482887849806,0.7227834737386631,236.5078132152961,-43.44782061243647,281.1621259478911,-324.60994656032756,102.0,6.471259593338762,-57.952286083662734,713.8383169181473,-771.79060300181,264.0,12.317690382181224,-1485.628919919957,-868.1007808950711,-3.2316046119869273,1.0,False,False,
37,pair_trading,XLK_top20_cleaned,XLK-INTC,baseline,zscore,ols,aggressive_cross,0.0,0.0,1.0,0.5,120.0,,0.183482887849806,0.7227834737386631,236.5078132152961,-43.44782061243647,281.1621259478911,-324.60994656032756,102.0,6.471259593338762,-48.09621113028288,702.1347961228369,-750.2310072531199,262.0,14.598546946263523,-1452.3658033759566,-849.9735518738291,-3.1417854946436856,1.0,False,False,
38,pair_trading,XLK_top20_cleaned,XLK-INTC,baseline,zscore,ols,aggressive_cross,0.0,0.0,1.5,0.5,120.0,4.0,0.183482887849806,0.7227834737386631,236.5078132152961,157.98221875183188,150.88435089045916,7.0978678613727375,60.0,0.955071729480376,80.28005319349577,452.17178138664354,-371.89172819314774,178.0,5.632430017164938,-824.0635095797911,-376.06294074057104,-1.7823614512503339,1.0,False,False,
39,pair_trading,XLK_top20_cleaned,XLK-INTC,baseline,zscore,ols,aggressive_cross,0.0,0.0,1.5,0.5,120.0,,0.183482887849806,0.7227834737386631,236.5078132152961,157.98221875183188,150.88435089045916,7.0978678613727375,60.0,0.955071729480376,72.90560149793004,440.08142962959295,-367.17582813166285,176.0,6.036318480166273,-807.2572577612557,-365.82220158112926,-1.759963702860151,1.0,False,False,
40,pair_trading,XLK_top20_cleaned,XLK-INTC,baseline,zscore,ols,aggressive_cross,0.0,0.0,2.0,0.5,120.0,4.0,0.183482887849806,0.7227834737386631,236.5078132152961,238.58498300095593,61.30086321600644,177.28411978494952,30.0,0.25693512829246606,-49.51900335754883,241.30315880220775,-290.82216215975654,102.0,4.872940536785314,-532.1253209619643,-348.58303658936785,-1.7839261264454171,1.0,True,False,
41,pair_trading,XLK_top20_cleaned,XLK-INTC,baseline,zscore,ols,aggressive_cross,0.0,0.0,2.0,0.5,120.0,,0.183482887849806,0.7227834737386631,236.5078132152961,238.58498300095593,61.30086321600644,177.28411978494952,30.0,0.25693512829246606,-47.904499433196115,235.09636988476694,-283.00086931796295,98.0,4.907605186703058,-518.09723920273,-324.92243173883077,-1.7351886495850175,1.0,False,False,
42,pair_trading,XLK_top20_cleaned,XLK-CSCO,baseline,zscore,ols,aggressive_cross,0.0,0.0,1.0,0.5,120.0,4.0,0.3205828327940572,0.7699862889737213,229.17793265691677,-193.0101308687617,262.13468054144863,-455.1448114102103,100.0,1.3581394891633358,-43.25255371278397,723.3180805613354,-766.5706342741194,292.0,16.723130046019627,-1489.8887148354547,-1028.750847717011,-3.116104406171177,1.0,False,False,
43,pair_trading,XLK_top20_cleaned,XLK-CSCO,baseline,zscore,ols,aggressive_cross,0.0,0.0,1.0,0.5,120.0,,0.3205828327940572,0.7699862889737213,229.17793265691677,-193.0101308687617,262.13468054144863,-455.1448114102103,100.0,1.3581394891633358,-32.86028218520004,723.388614960295,-756.2488971454953,286.0,22.014071908551724,-1479.63751210579,-1024.7318674368696,-3.0740711781779644,1.0,False,False,
44,pair_trading,XLK_top20_cleaned,XLK-CSCO,baseline,zscore,ols,aggressive_cross,0.0,0.0,1.5,0.5,120.0,4.0,0.3205828327940572,0.7699862889737213,229.17793265691677,-46.73559229260886,213.04974630634777,-259.78533859895657,70.0,4.558618728365643,-356.07372459445054,490.7337577103848,-846.8074823048356,184.0,1.3781802020615395,-1337.5412400152204,-947.8315045243093,-3.985503658874726,1.0,False,False,
45,pair_trading,XLK_top20_cleaned,XLK-CSCO,baseline,zscore,ols,aggressive_cross,0.0,0.0,1.5,0.5,120.0,,0.3205828327940572,0.7699862889737213,229.17793265691677,-46.73559229260886,213.04974630634777,-259.78533859895657,70.0,4.558618728365643,-343.04591036119365,489.3675977277648,-832.4135080889586,178.0,1.426536749009801,-1321.7811058167233,-921.5866799894677,-3.917227621788552,1.0,False,False,
46,pair_trading,XLK_top20_cleaned,XLK-CSCO,baseline,zscore,ols,aggressive_cross,0.0,0.0,2.0,0.5,120.0,4.0,0.3205828327940572,0.7699862889737213,229.17793265691677,-32.86427273888703,96.42127706887608,-129.28554980776312,38.0,2.9339239555051675,-216.2406973905415,282.9776467024454,-499.2183440929869,104.0,1.3086234465447253,-782.1959907954322,-608.9160042097546,-3.011699166675968,1.0,True,False,
47,pair_trading,XLK_top20_cleaned,XLK-CSCO,baseline,zscore,ols,aggressive_cross,0.0,0.0,2.0,0.5,120.0,,0.3205828327940572,0.7699862889737213,229.17793265691677,-32.86427273888703,96.42127706887608,-129.28554980776312,38.0,2.9339239555051675,-205.53935854104674,271.56283946870303,-477.10219800974977,96.0,1.3212206236134147,-748.6650374784527,-600.3981211476137,-2.879377748184446,1.0,False,False,
48,pair_trading,XLK_top20_cleaned,XLK-PLTR,baseline,zscore,ols,aggressive_cross,0.0,0.0,1.0,0.5,120.0,4.0,0.15936779763197223,0.3283475828923219,198.0095982893696,166.76389595745192,312.2885798413549,-145.52468388390298,94.0,1.8726390268612583,-1049.7949735624622,845.0637468450549,-1894.8587204075172,291.0,0.8049797990338482,-2739.9224672525725,-2043.269873430811,-7.186093999470329,1.0,False,False,
49,pair_trading,XLK_top20_cleaned,XLK-PLTR,baseline,zscore,ols,aggressive_cross,0.0,0.0,1.0,0.5,120.0,,0.15936779763197223,0.3283475828923219,198.0095982893696,166.76389595745192,312.2885798413549,-145.52468388390298,94.0,1.8726390268612583,-1049.7949735624622,845.0637468450549,-1894.8587204075172,291.0,0.8049797990338482,-2739.9224672525725,-2043.269873430811,-7.186093999470329,1.0,False,False,
50,pair_trading,XLK_top20_cleaned,XLK-PLTR,baseline,zscore,ols,aggressive_cross,0.0,0.0,1.5,0.5,120.0,4.0,0.15936779763197223,0.3283475828923219,198.0095982893696,262.4257006072282,181.81876996224676,80.60693064498157,56.0,0.6928390380268982,-384.06617401712003,595.1377558269445,-979.2039298440646,197.0,1.5495708710874803,-1574.3416856710091,-1162.418254355105,-4.285592699244524,1.0,True,False,
51,pair_trading,XLK_top20_cleaned,XLK-PLTR,baseline,zscore,ols,aggressive_cross,0.0,0.0,1.5,0.5,120.0,,0.15936779763197223,0.3283475828923219,198.0095982893696,262.4257006072282,181.81876996224676,80.60693064498157,56.0,0.6928390380268982,-384.06617401712003,595.1377558269445,-979.2039298440646,197.0,1.5495708710874803,-1574.3416856710091,-1162.418254355105,-4.285592699244524,1.0,False,False,
52,pair_trading,XLK_top20_cleaned,XLK-PLTR,baseline,zscore,ols,aggressive_cross,0.0,0.0,2.0,0.5,120.0,4.0,0.15936779763197223,0.3283475828923219,198.0095982893696,172.9844737163554,94.60530403788262,78.3791696784728,32.0,0.5469005512772667,61.91769908805147,214.03225759584345,-152.11455850779208,96.0,3.4567217572389763,-366.1468161036356,-142.16531523443572,-0.8986912619465944,1.0,False,False,
53,pair_trading,XLK_top20_cleaned,XLK-PLTR,baseline,zscore,ols,aggressive_cross,0.0,0.0,2.0,0.5,120.0,,0.15936779763197223,0.3283475828923219,198.0095982893696,172.9844737163554,94.60530403788262,78.3791696784728,32.0,0.5469005512772667,61.91769908805147,214.03225759584345,-152.11455850779208,96.0,3.4567217572389763,-366.1468161036356,-142.16531523443572,-0.8986912619465944,1.0,False,False,
54,pair_trading,XLK_top20_cleaned,XLK-LRCX,baseline,zscore,ols,aggressive_cross,0.0,0.0,1.0,0.5,120.0,4.0,0.17977997194016287,0.8336242722019149,191.77341986153473,23.137408363846298,431.9297335791081,-408.79232521526177,92.0,18.668025683206004,-1624.200793076616,1269.0768087462945,-2893.2776018229106,301.0,0.781354629400449,-4162.354410569205,-3198.839303241399,-10.00359398999418,1.0,False,False,
55,pair_trading,XLK_top20_cleaned,XLK-LRCX,baseline,zscore,ols,aggressive_cross,0.0,0.0,1.0,0.5,120.0,,0.17977997194016287,0.8336242722019149,191.77341986153473,72.36159357821955,415.74494459175645,-343.3833510135369,88.0,5.745381272488911,-1624.200793076616,1269.0768087462945,-2893.2776018229106,301.0,0.781354629400449,-4162.354410569205,-3198.839303241399,-10.00359398999418,1.0,False,False,
56,pair_trading,XLK_top20_cleaned,XLK-LRCX,baseline,zscore,ols,aggressive_cross,0.0,0.0,1.5,0.5,120.0,4.0,0.17977997194016287,0.8336242722019149,191.77341986153473,45.7230635095715,243.8367056714634,-198.1136421618919,58.0,5.332903942895679,-793.023448758084,939.2755721159116,-1732.2990208739955,217.0,1.1844234537917713,-2671.574592989907,-1936.1830094826548,-6.973626795638454,1.0,False,False,
57,pair_trading,XLK_top20_cleaned,XLK-LRCX,baseline,zscore,ols,aggressive_cross,0.0,0.0,1.5,0.5,120.0,,0.17977997194016287,0.8336242722019149,191.77341986153473,64.45214789731503,226.2905615190754,-161.83841362176037,54.0,3.5109855745940517,-793.023448758084,939.2755721159116,-1732.2990208739955,217.0,1.1844234537917713,-2671.574592989907,-1936.1830094826548,-6.973626795638454,1.0,True,False,
58,pair_trading,XLK_top20_cleaned,XLK-LRCX,baseline,zscore,ols,aggressive_cross,0.0,0.0,2.0,0.5,120.0,4.0,0.17977997194016287,0.8336242722019149,191.77341986153473,-46.42067817226269,172.08289660640992,-218.5035747786726,44.0,3.7070310771382267,-309.8431350274988,514.3813478702548,-824.2244828977537,104.0,1.6601347253493386,-1338.6058307680087,-726.0667719175653,-4.415006529428035,1.0,False,False,
59,pair_trading,XLK_top20_cleaned,XLK-LRCX,baseline,zscore,ols,aggressive_cross,0.0,0.0,2.0,0.5,120.0,,0.17977997194016287,0.8336242722019149,191.77341986153473,-19.079483975184797,156.43916745229208,-175.51865142747695,40.0,8.199339544809511,-309.8431350274988,514.3813478702548,-824.2244828977537,104.0,1.6601347253493386,-1338.6058307680087,-726.0667719175653,-4.415006529428035,1.0,False,False,
60,pair_trading,XLK_top20_cleaned,XLK-AMAT,baseline,zscore,ols,aggressive_cross,0.0,0.0,1.0,0.5,120.0,4.0,0.14214655234172935,0.7005304277500676,198.62914056620676,399.8289768867106,413.2198669486203,-13.39089006190973,98.0,1.0334915447253936,-1359.4921880986683,1104.4415464073281,-2463.9337345059967,291.0,0.8123927125700929,-3568.375280913325,-2890.78124639464,-8.79908590600943,1.0,True,False,
61,pair_trading,XLK_top20_cleaned,XLK-AMAT,baseline,zscore,ols,aggressive_cross,0.0,0.0,1.0,0.5,120.0,,0.14214655234172935,0.7005304277500676,198.62914056620676,399.8289768867106,413.2198669486203,-13.39089006190973,98.0,1.0334915447253936,-1359.4921880986683,1104.4415464073281,-2463.9337345059967,291.0,0.8123927125700929,-3568.375280913325,-2890.78124639464,-8.79908590600943,1.0,False,False,
62,pair_trading,XLK_top20_cleaned,XLK-AMAT,baseline,zscore,ols,aggressive_cross,0.0,0.0,1.5,0.5,120.0,4.0,0.14214655234172935,0.7005304277500676,198.62914056620676,27.410705622645995,195.9136818761137,-168.50297625346775,54.0,7.147341793137024,-860.2655016365239,811.3528381845307,-1671.6183398210549,217.0,0.9431423631902659,-2482.971178005586,-1797.3054100693726,-6.777550701261804,1.0,False,False,
63,pair_trading,XLK_top20_cleaned,XLK-AMAT,baseline,zscore,ols,aggressive_cross,0.0,0.0,1.5,0.5,120.0,,0.14214655234172935,0.7005304277500676,198.62914056620676,27.410705622645995,195.9136818761137,-168.50297625346775,54.0,7.147341793137024,-860.2655016365239,811.3528381845307,-1671.6183398210549,217.0,0.9431423631902659,-2482.971178005586,-1797.3054100693726,-6.777550701261804,1.0,False,False,
64,pair_trading,XLK_top20_cleaned,XLK-AMAT,baseline,zscore,ols,aggressive_cross,0.0,0.0,2.0,0.5,120.0,4.0,0.14214655234172935,0.7005304277500676,198.62914056620676,98.95675254581325,193.96939928725146,-95.01264674143822,40.0,1.9601431362397523,-97.28553965474636,613.9604921204183,-711.2460317751643,119.0,6.310912128352103,-1325.2065238955824,-658.9544349660777,-3.5895738341096655,1.0,False,False,
65,pair_trading,XLK_top20_cleaned,XLK-AMAT,baseline,zscore,ols,aggressive_cross,0.0,0.0,2.0,0.5,120.0,,0.14214655234172935,0.7005304277500676,198.62914056620676,98.95675254581325,193.96939928725146,-95.01264674143822,40.0,1.9601431362397523,-97.28553965474636,613.9604921204183,-711.2460317751643,119.0,6.310912128352103,-1325.2065238955824,-658.9544349660777,-3.5895738341096655,1.0,False,False,
66,pair_trading,XLK_top20_cleaned,XLK-ORCL,baseline,zscore,ols,aggressive_cross,0.0,0.0,1.0,0.5,120.0,4.0,0.11882894568938178,0.05799809212512568,213.28375926186595,-373.76240476263297,211.26176114173418,-585.0241659043672,94.0,0.5652300992549028,-201.3747061720522,813.0009881189668,-1014.3756942910192,317.0,4.03725474551083,-1827.3766824099857,-1357.79035725748,-3.678166151707074,1.0,False,False,
67,pair_trading,XLK_top20_cleaned,XLK-ORCL,baseline,zscore,ols,aggressive_cross,0.0,0.0,1.0,0.5,120.0,,0.11882894568938178,0.05799809212512568,213.28375926186595,-318.2663151503983,176.66607245439323,-494.93238760479153,84.0,0.5550888172721289,-201.3747061720522,813.0009881189668,-1014.3756942910192,317.0,4.03725474551083,-1827.3766824099857,-1357.79035725748,-3.678166151707074,1.0,False,False,
68,pair_trading,XLK_top20_cleaned,XLK-ORCL,baseline,zscore,ols,aggressive_cross,0.0,0.0,1.5,0.5,120.0,4.0,0.11882894568938178,0.05799809212512568,213.28375926186595,-56.09247627119375,236.82378929325066,-292.9162655644444,72.0,4.222024147200492,-55.00859255631006,489.4166065048168,-544.4251990611268,191.0,8.897093776828063,-1033.8418055659438,-818.5223091317243,-2.3704711145360853,1.0,False,False,
69,pair_trading,XLK_top20_cleaned,XLK-ORCL,baseline,zscore,ols,aggressive_cross,0.0,0.0,1.5,0.5,120.0,,0.11882894568938178,0.05799809212512568,213.28375926186595,-62.689658471713344,201.5008674816908,-264.1905259534041,62.0,3.214260093195618,-55.00859255631006,489.4166065048168,-544.4251990611268,191.0,8.897093776828063,-1033.8418055659438,-818.5223091317243,-2.3704711145360853,1.0,False,False,
70,pair_trading,XLK_top20_cleaned,XLK-ORCL,baseline,zscore,ols,aggressive_cross,0.0,0.0,2.0,0.5,120.0,4.0,0.11882894568938178,0.05799809212512568,213.28375926186595,120.38068684392479,108.08528224800484,12.295404595919907,46.0,0.8978623156398742,22.926424338075222,186.0940628286098,-163.1676384905345,99.0,8.117012059292332,-349.2617013191443,-254.32896505441414,-0.9422199732301201,1.0,False,False,
71,pair_trading,XLK_top20_cleaned,XLK-ORCL,baseline,zscore,ols,aggressive_cross,0.0,0.0,2.0,0.5,120.0,,0.11882894568938178,0.05799809212512568,213.28375926186595,151.8856964620676,80.84281395738277,71.0428825046848,36.0,0.5322608767019263,22.926424338075222,186.0940628286098,-163.1676384905345,99.0,8.117012059292332,-349.2617013191443,-254.32896505441414,-0.9422199732301201,1.0,True,False,
72,pair_trading,XLK_top20_cleaned,XLK-TXN,baseline,zscore,ols,aggressive_cross,0.0,0.0,1.0,0.5,120.0,4.0,0.12914434767331914,0.2693081721383044,235.64395905028076,-528.9841691377734,286.10626748147865,-815.0904366192522,90.0,0.540859791603636,-620.1681295237607,980.5837538422599,-1600.7518833660204,291.0,1.5811579266339748,-2581.335637208281,-1951.3569933904685,-5.692256636784366,1.0,False,False,
73,pair_trading,XLK_top20_cleaned,XLK-TXN,baseline,zscore,ols,aggressive_cross,0.0,0.0,1.0,0.5,120.0,,0.12914434767331914,0.2693081721383044,235.64395905028076,-528.9841691377734,286.10626748147865,-815.0904366192522,90.0,0.540859791603636,-620.1681295237607,980.5837538422599,-1600.7518833660204,291.0,1.5811579266339748,-2581.335637208281,-1951.3569933904685,-5.692256636784366,1.0,False,False,
74,pair_trading,XLK_top20_cleaned,XLK-TXN,baseline,zscore,ols,aggressive_cross,0.0,0.0,1.5,0.5,120.0,4.0,0.12914434767331914,0.2693081721383044,235.64395905028076,-218.27244475728517,237.85670876684276,-456.12915352412796,64.0,1.0897239412484472,-9.266962503039766,613.2139608125448,-622.4809233155845,197.0,66.17205590412146,-1235.6948841281294,-835.5060158808353,-2.5519703706472705,1.0,False,False,
75,pair_trading,XLK_top20_cleaned,XLK-TXN,baseline,zscore,ols,aggressive_cross,0.0,0.0,1.5,0.5,120.0,,0.12914434767331914,0.2693081721383044,235.64395905028076,-218.27244475728517,237.85670876684276,-456.12915352412796,64.0,1.0897239412484472,-9.266962503039766,613.2139608125448,-622.4809233155845,197.0,66.17205590412146,-1235.6948841281294,-835.5060158808353,-2.5519703706472705,1.0,False,False,
76,pair_trading,XLK_top20_cleaned,XLK-TXN,baseline,zscore,ols,aggressive_cross,0.0,0.0,2.0,0.5,120.0,4.0,0.12914434767331914,0.2693081721383044,235.64395905028076,2.532611363990772,117.6888289800207,-115.15621761602996,36.0,46.46935990785893,-127.81427150286618,334.22026500971634,-462.03453651258246,102.0,2.614890035986487,-796.254801522299,-461.12074524335577,-2.44636204831562,1.0,True,False,
77,pair_trading,XLK_top20_cleaned,XLK-TXN,baseline,zscore,ols,aggressive_cross,0.0,0.0,2.0,0.5,120.0,,0.12914434767331914,0.2693081721383044,235.64395905028076,2.532611363990772,117.6888289800207,-115.15621761602996,36.0,46.46935990785893,-127.81427150286618,334.22026500971634,-462.03453651258246,102.0,2.614890035986487,-796.254801522299,-461.12074524335577,-2.44636204831562,1.0,False,False,
78,pair_trading,XLK_top20_cleaned,XLK-KLAC,baseline,zscore,ols,aggressive_cross,0.0,0.0,1.0,0.5,120.0,4.0,0.09684657338915938,0.20415231288606434,211.91126928030013,182.37377860906471,424.9626891004931,-242.5889104914286,96.0,2.3301742846017377,-1086.260041985937,1199.8117579568673,-2286.071799942805,285.0,1.1045345604016983,-3485.883557899672,-2530.9727665800774,-8.184310010891835,1.0,False,False,
79,pair_trading,XLK_top20_cleaned,XLK-KLAC,baseline,zscore,ols,aggressive_cross,0.0,0.0,1.0,0.5,120.0,,0.09684657338915938,0.20415231288606434,211.91126928030013,182.37377860906471,424.9626891004931,-242.5889104914286,96.0,2.3301742846017377,-1086.260041985937,1199.8117579568673,-2286.071799942805,285.0,1.1045345604016983,-3485.883557899672,-2530.9727665800774,-8.184310010891835,1.0,False,False,
80,pair_trading,XLK_top20_cleaned,XLK-KLAC,baseline,zscore,ols,aggressive_cross,0.0,0.0,1.5,0.5,120.0,4.0,0.09684657338915938,0.20415231288606434,211.91126928030013,-33.25445419900354,225.6301029332676,-258.88455713227114,56.0,6.784958838387086,-279.56427299729705,822.5552106084111,-1102.119483605708,213.0,2.9422758558865065,-1924.6746942141187,-1212.0244794768528,-4.483541687155306,1.0,False,False,
81,pair_trading,XLK_top20_cleaned,XLK-KLAC,baseline,zscore,ols,aggressive_cross,0.0,0.0,1.5,0.5,120.0,,0.09684657338915938,0.20415231288606434,211.91126928030013,-33.25445419900354,225.6301029332676,-258.88455713227114,56.0,6.784958838387086,-279.56427299729705,822.5552106084111,-1102.119483605708,213.0,2.9422758558865065,-1924.6746942141187,-1212.0244794768528,-4.483541687155306,1.0,False,False,
82,pair_trading,XLK_top20_cleaned,XLK-KLAC,baseline,zscore,ols,aggressive_cross,0.0,0.0,2.0,0.5,120.0,4.0,0.09684657338915938,0.20415231288606434,211.91126928030013,90.65569732252706,139.2582782067233,-48.602580884196215,38.0,1.5361227404305562,-91.8611103391826,453.6231666126174,-545.4842769518,109.0,4.938141558900014,-999.1074435644173,-637.7941083303784,-2.8534004006761102,1.0,True,False,
83,pair_trading,XLK_top20_cleaned,XLK-KLAC,baseline,zscore,ols,aggressive_cross,0.0,0.0,2.0,0.5,120.0,,0.09684657338915938,0.20415231288606434,211.91126928030013,90.65569732252706,139.2582782067233,-48.602580884196215,38.0,1.5361227404305562,-91.8611103391826,453.6231666126174,-545.4842769518,109.0,4.938141558900014,-999.1074435644173,-637.7941083303784,-2.8534004006761102,1.0,False,False,
84,pair_trading,XLK_top20_cleaned,XLK-IBM,baseline,zscore,ols,aggressive_cross,0.0,0.0,1.0,0.5,120.0,4.0,0.09888069889352176,0.5055174067090747,234.20610087538304,-290.5649137844133,249.582050407837,-540.1469641922504,90.0,0.8589545350028606,-1051.1944737129174,734.649171282509,-1785.8436449954265,291.0,0.6988708461219922,-2520.4928162779356,-2093.153439694842,-6.292868890173467,1.0,False,False,
85,pair_trading,XLK_top20_cleaned,XLK-IBM,baseline,zscore,ols,aggressive_cross,0.0,0.0,1.0,0.5,120.0,,0.09888069889352176,0.5055174067090747,234.20610087538304,-290.5649137844133,249.582050407837,-540.1469641922504,90.0,0.8589545350028606,-1051.1944737129174,734.649171282509,-1785.8436449954265,291.0,0.6988708461219922,-2520.4928162779356,-2093.153439694842,-6.292868890173467,1.0,False,False,
86,pair_trading,XLK_top20_cleaned,XLK-IBM,baseline,zscore,ols,aggressive_cross,0.0,0.0,1.5,0.5,120.0,4.0,0.09888069889352176,0.5055174067090747,234.20610087538304,-54.544607515561104,156.22495811662898,-210.76956563219,62.0,2.864168709474339,202.7969590468999,483.01058251781797,-280.2136234709181,203.0,2.38174470064965,-763.2242059887362,-586.4404638416738,-1.131016864980544,1.0,False,False,
87,pair_trading,XLK_top20_cleaned,XLK-IBM,baseline,zscore,ols,aggressive_cross,0.0,0.0,1.5,0.5,120.0,,0.09888069889352176,0.5055174067090747,234.20610087538304,-54.544607515561104,156.22495811662898,-210.76956563219,62.0,2.864168709474339,202.7969590468999,483.01058251781797,-280.2136234709181,203.0,2.38174470064965,-763.2242059887362,-586.4404638416738,-1.131016864980544,1.0,False,False,
88,pair_trading,XLK_top20_cleaned,XLK-IBM,baseline,zscore,ols,aggressive_cross,0.0,0.0,2.0,0.5,120.0,4.0,0.09888069889352176,0.5055174067090747,234.20610087538304,-91.50245754369787,95.63714276809289,-187.13960031179076,40.0,1.045186603020148,-12.948881599549322,238.3067967459703,-251.25567834551967,100.0,18.40365864139683,-489.56247509149,-347.2291853551326,-1.3635635607939414,1.0,True,False,
89,pair_trading,XLK_top20_cleaned,XLK-IBM,baseline,zscore,ols,aggressive_cross,0.0,0.0,2.0,0.5,120.0,,0.09888069889352176,0.5055174067090747,234.20610087538304,-91.50245754369787,95.63714276809289,-187.13960031179076,40.0,1.045186603020148,-12.948881599549322,238.3067967459703,-251.25567834551967,100.0,18.40365864139683,-489.56247509149,-347.2291853551326,-1.3635635607939414,1.0,False,False,
90,pair_trading,XLK_top20_cleaned,XLK-ADI,baseline,zscore,ols,aggressive_cross,0.0,0.0,1.0,0.5,120.0,4.0,0.14886946846089452,0.5528604935240394,221.44008876002798,-229.78995504356516,391.8085537513759,-621.5985087949412,90.0,1.7050725897791925,-1029.0694229663623,1170.141775749996,-2199.211198716358,283.0,1.1370873039614597,-3369.352974466354,-2499.4037424738763,-7.889462839515134,1.0,False,False,
91,pair_trading,XLK_top20_cleaned,XLK-ADI,baseline,zscore,ols,aggressive_cross,0.0,0.0,1.0,0.5,120.0,,0.14886946846089452,0.5528604935240394,221.44008876002798,-229.78995504356516,391.8085537513759,-621.5985087949412,90.0,1.7050725897791925,-1029.0694229663623,1170.141775749996,-2199.211198716358,283.0,1.1370873039614597,-3369.352974466354,-2499.4037424738763,-7.889462839515134,1.0,False,False,
92,pair_trading,XLK_top20_cleaned,XLK-ADI,baseline,zscore,ols,aggressive_cross,0.0,0.0,1.5,0.5,120.0,4.0,0.14886946846089452,0.5528604935240394,221.44008876002798,-142.18520051822398,262.2753344024223,-404.4605349206463,62.0,1.8446036116733981,-215.78067984179546,837.9020388477884,-1053.682718689584,209.0,3.8831189125092913,-1891.5847575373723,-1260.9561710049861,-4.255708032244206,1.0,False,False,
93,pair_trading,XLK_top20_cleaned,XLK-ADI,baseline,zscore,ols,aggressive_cross,0.0,0.0,1.5,0.5,120.0,,0.14886946846089452,0.5528604935240394,221.44008876002798,-142.18520051822398,262.2753344024223,-404.4605349206463,62.0,1.8446036116733981,-215.78067984179546,837.9020388477884,-1053.682718689584,209.0,3.8831189125092913,-1891.5847575373723,-1260.9561710049861,-4.255708032244206,1.0,False,False,
94,pair_trading,XLK_top20_cleaned,XLK-ADI,baseline,zscore,ols,aggressive_cross,0.0,0.0,2.0,0.5,120.0,4.0,0.14886946846089452,0.5528604935240394,221.44008876002798,-117.9693762391766,182.55826213053362,-300.52763836971013,40.0,1.5475055302522454,-351.8711020341847,433.5267889784814,-785.397891012666,106.0,1.232061361311688,-1218.9246799911477,-745.862200950679,-4.161887927378559,1.0,True,False,
95,pair_trading,XLK_top20_cleaned,XLK-ADI,baseline,zscore,ols,aggressive_cross,0.0,0.0,2.0,0.5,120.0,,0.14886946846089452,0.5528604935240394,221.44008876002798,-117.9693762391766,182.55826213053362,-300.52763836971013,40.0,1.5475055302522454,-351.8711020341847,433.5267889784814,-785.397891012666,106.0,1.232061361311688,-1218.9246799911477,-745.862200950679,-4.161887927378559,1.0,False,False,
96,pair_trading,XLK_top20_cleaned,XLK-QCOM,baseline,zscore,ols,aggressive_cross,0.0,0.0,1.0,0.5,120.0,4.0,0.12712945076113996,0.29771453604037246,223.7299624308779,-396.5583411171138,246.31858701880424,-642.876928135918,90.0,0.6211408548989771,-318.53200879069595,894.4675685885464,-1212.9995773792423,305.0,2.808093202263675,-2107.467145967789,-1383.6592955322394,-4.47046244063599,1.0,False,False,
97,pair_trading,XLK_top20_cleaned,XLK-QCOM,baseline,zscore,ols,aggressive_cross,0.0,0.0,1.0,0.5,120.0,,0.12712945076113996,0.29771453604037246,223.7299624308779,-396.5583411171138,246.31858701880424,-642.876928135918,90.0,0.6211408548989771,-318.53200879069595,894.4675685885464,-1212.9995773792423,305.0,2.808093202263675,-2107.467145967789,-1383.6592955322394,-4.47046244063599,1.0,False,False,
98,pair_trading,XLK_top20_cleaned,XLK-QCOM,baseline,zscore,ols,aggressive_cross,0.0,0.0,1.5,0.5,120.0,4.0,0.12712945076113996,0.29771453604037246,223.7299624308779,-75.70945175794667,185.2459748279037,-260.9554265858505,68.0,2.4468011658591857,100.03532980771848,565.1168516857261,-465.08152187800766,190.0,5.649172675013494,-1030.198373563734,-606.9438757942503,-2.0243793363982263,1.0,False,False,
99,pair_trading,XLK_top20_cleaned,XLK-QCOM,baseline,zscore,ols,aggressive_cross,0.0,0.0,1.5,0.5,120.0,,0.12712945076113996,0.29771453604037246,223.7299624308779,-75.70945175794667,185.2459748279037,-260.9554265858505,68.0,2.4468011658591857,100.03532980771848,565.1168516857261,-465.08152187800766,190.0,5.649172675013494,-1030.198373563734,-606.9438757942503,-2.0243793363982263,1.0,False,False,
100,pair_trading,XLK_top20_cleaned,XLK-QCOM,baseline,zscore,ols,aggressive_cross,0.0,0.0,2.0,0.5,120.0,4.0,0.12712945076113996,0.29771453604037246,223.7299624308779,-64.9695433353902,84.67222654844755,-149.6417698838377,36.0,1.3032603001585963,88.26741004249759,264.1084865656681,-175.84107652317044,108.0,2.9921404336947166,-439.9495630888386,-266.7400619375263,-0.9599020678182577,1.0,True,False,
101,pair_trading,XLK_top20_cleaned,XLK-QCOM,baseline,zscore,ols,aggressive_cross,0.0,0.0,2.0,0.5,120.0,,0.12712945076113996,0.29771453604037246,223.7299624308779,-64.9695433353902,84.67222654844755,-149.6417698838377,36.0,1.3032603001585963,88.26741004249759,264.1084865656681,-175.84107652317044,108.0,2.9921404336947166,-439.9495630888386,-266.7400619375263,-0.9599020678182577,1.0,False,False,
102,pair_trading,XLK_top20_cleaned,XLK-ANET,baseline,zscore,ols,aggressive_cross,0.0,0.0,1.0,0.5,120.0,4.0,0.12375269120668982,0.015941952505673547,205.41576085320528,-359.6524922357323,286.9112222735795,-646.5637145093117,86.0,0.797745680809922,-203.635436957062,1081.625453029749,-1285.2608899868108,303.0,5.311577735155288,-2366.8863430165597,-1879.1366040332684,-4.810455975694805,1.0,False,False,
103,pair_trading,XLK_top20_cleaned,XLK-ANET,baseline,zscore,ols,aggressive_cross,0.0,0.0,1.0,0.5,120.0,,0.12375269120668982,0.015941952505673547,205.41576085320528,-339.69266160776107,260.0197522399929,-599.7124138477539,82.0,0.7654559006642142,-195.02361540688722,1065.3840474303029,-1260.4076628371897,303.0,5.462846359439807,-2325.791710267493,-1853.5184059685128,-4.719026988227897,1.0,False,False,
104,pair_trading,XLK_top20_cleaned,XLK-ANET,baseline,zscore,ols,aggressive_cross,0.0,0.0,1.5,0.5,120.0,4.0,0.12375269120668982,0.015941952505673547,205.41576085320528,2.14081554322558,255.51914431710392,-253.37832877387834,70.0,119.3559833427366,-293.96373835927704,649.1405193943991,-943.104257753676,187.0,2.208233311419627,-1592.2447771480752,-1107.8319204458496,-4.140947006620416,1.0,False,False,
105,pair_trading,XLK_top20_cleaned,XLK-ANET,baseline,zscore,ols,aggressive_cross,0.0,0.0,1.5,0.5,120.0,,0.12375269120668982,0.015941952505673547,205.41576085320528,22.10064617119693,228.6276742835173,-206.52702811232035,66.0,10.344841164937543,-289.7153060767495,634.9964635184646,-924.7117695952143,187.0,2.191794669454728,-1559.7082331136792,-1085.6118247789298,-4.061739890794182,1.0,False,False,
106,pair_trading,XLK_top20_cleaned,XLK-ANET,baseline,zscore,ols,aggressive_cross,0.0,0.0,2.0,0.5,120.0,4.0,0.12375269120668982,0.015941952505673547,205.41576085320528,29.91506889600183,154.4067817689615,-124.49171287295965,40.0,5.161505136616887,-33.97293787164771,358.08830481159293,-392.06124268324066,108.0,10.540398542053596,-750.1495474948335,-428.363932557254,-2.181842950501742,1.0,False,False,
107,pair_trading,XLK_top20_cleaned,XLK-ANET,baseline,zscore,ols,aggressive_cross,0.0,0.0,2.0,0.5,120.0,,0.12375269120668982,0.015941952505673547,205.41576085320528,26.545450826449684,133.27473152122872,-106.72928069477895,36.0,5.020624151104444,-25.54143221415531,360.2868563789406,-385.828288593096,108.0,14.105977039896226,-746.1151449720365,-387.8619535321888,-2.145689750982924,1.0,True,False,
108,pair_trading,XLK_top20_cleaned,XLK-SNDK,baseline,zscore,ols,aggressive_cross,0.0,0.0,1.0,0.5,120.0,4.0,0.05944709609979738,0.899991533643907,224.93621368182767,-14.376308458124292,293.7463980062912,-308.12270646441556,92.0,20.432672188547137,-1174.2401495840113,815.4597278989961,-1989.6998774830076,291.0,0.6944573715929254,-2805.159605382004,-2213.793744838108,-7.111141055242931,1.0,False,False,
109,pair_trading,XLK_top20_cleaned,XLK-SNDK,baseline,zscore,ols,aggressive_cross,0.0,0.0,1.0,0.5,120.0,,0.05944709609979738,0.899991533643907,224.93621368182767,-14.376308458124292,293.7463980062912,-308.12270646441556,92.0,20.432672188547137,-1174.2401495840113,815.4597278989961,-1989.6998774830076,291.0,0.6944573715929254,-2805.159605382004,-2213.793744838108,-7.111141055242931,1.0,False,False,
110,pair_trading,XLK_top20_cleaned,XLK-SNDK,baseline,zscore,ols,aggressive_cross,0.0,0.0,1.5,0.5,120.0,4.0,0.05944709609979738,0.899991533643907,224.93621368182767,74.2880149792462,191.14984032737422,-116.86182534812795,64.0,2.5730912365982004,-518.4805616137338,614.9397100316642,-1133.420271645398,215.0,1.1860419764199224,-1748.3599816770623,-1305.7558129527574,-4.5539789104036394,1.0,True,False,
111,pair_trading,XLK_top20_cleaned,XLK-SNDK,baseline,zscore,ols,aggressive_cross,0.0,0.0,1.5,0.5,120.0,,0.05944709609979738,0.899991533643907,224.93621368182767,74.2880149792462,191.14984032737422,-116.86182534812795,64.0,2.5730912365982004,-518.4805616137338,614.9397100316642,-1133.420271645398,215.0,1.1860419764199224,-1748.3599816770623,-1305.7558129527574,-4.5539789104036394,1.0,False,False,
112,pair_trading,XLK_top20_cleaned,XLK-SNDK,baseline,zscore,ols,aggressive_cross,0.0,0.0,2.0,0.5,120.0,4.0,0.05944709609979738,0.899991533643907,224.93621368182767,-99.68296446264559,118.79939572572212,-218.48236018836772,34.0,1.1917722989692996,-326.95354994529447,333.7126786083434,-660.666228553638,113.0,1.020673054824393,-994.3789071619816,-657.9124016844642,-3.429446700943526,1.0,False,False,
113,pair_trading,XLK_top20_cleaned,XLK-SNDK,baseline,zscore,ols,aggressive_cross,0.0,0.0,2.0,0.5,120.0,,0.05944709609979738,0.899991533643907,224.93621368182767,-99.68296446264559,118.79939572572212,-218.48236018836772,34.0,1.1917722989692996,-326.95354994529447,333.7126786083434,-660.666228553638,113.0,1.020673054824393,-994.3789071619816,-657.9124016844642,-3.429446700943526,1.0,False,False,
114,pair_trading,XLK_top20_cleaned,XLK-APH,baseline,zscore,ols,aggressive_cross,0.0,0.0,1.0,0.5,120.0,4.0,0.16594094121884617,0.8365306258662117,228.08139773052142,107.33898231435064,484.28063646606233,-376.94165415171165,118.0,4.511693944030589,-1037.571743959857,1119.165169264337,-2156.7369132241943,277.0,1.0786388274155208,-3275.902082488531,-2293.759946441396,-7.7624234189545716,1.0,False,False,
115,pair_trading,XLK_top20_cleaned,XLK-APH,baseline,zscore,ols,aggressive_cross,0.0,0.0,1.0,0.5,120.0,,0.16594094121884617,0.8365306258662117,228.08139773052142,132.12471913545576,374.8395966905276,-242.71487755507184,94.0,2.837013385105007,-1037.571743959857,1119.165169264337,-2156.7369132241943,277.0,1.0786388274155208,-3275.902082488531,-2293.759946441396,-7.7624234189545716,1.0,False,False,
116,pair_trading,XLK_top20_cleaned,XLK-APH,baseline,zscore,ols,aggressive_cross,0.0,0.0,1.5,0.5,120.0,4.0,0.16594094121884617,0.8365306258662117,228.08139773052142,195.13525332283115,355.99055805880056,-160.85530473596933,82.0,1.824327239680525,-707.5036752235408,825.8389761521959,-1533.3426513757365,191.0,1.1672575070246332,-2359.1816275279325,-1576.2261087175052,-6.329840379172581,1.0,False,False,
117,pair_trading,XLK_top20_cleaned,XLK-APH,baseline,zscore,ols,aggressive_cross,0.0,0.0,1.5,0.5,120.0,,0.16594094121884617,0.8365306258662117,228.08139773052142,219.92099014393625,246.54951828326588,-26.62852813932956,58.0,1.1210822492291506,-707.5036752235408,825.8389761521959,-1533.3426513757365,191.0,1.1672575070246332,-2359.1816275279325,-1576.2261087175052,-6.329840379172581,1.0,True,False,
118,pair_trading,XLK_top20_cleaned,XLK-APH,baseline,zscore,ols,aggressive_cross,0.0,0.0,2.0,0.5,120.0,4.0,0.16594094121884617,0.8365306258662117,228.08139773052142,75.2159566975053,241.48578335432902,-166.26982665682368,56.0,3.210565868696029,-483.1985824396694,465.25734479672326,-948.4559272363927,116.0,0.9628698462806724,-1413.7132720331158,-929.0722055841585,-4.8715408763534205,1.0,False,False,
119,pair_trading,XLK_top20_cleaned,XLK-APH,baseline,zscore,ols,aggressive_cross,0.0,0.0,2.0,0.5,120.0,,0.16594094121884617,0.8365306258662117,228.08139773052142,42.300551102481215,128.6031420204441,-86.30259091796289,32.0,3.040223795403475,-483.1985824396694,465.25734479672326,-948.4559272363927,116.0,0.9628698462806724,-1413.7132720331158,-929.0722055841585,-4.8715408763534205,1.0,False,False,
120,pair_trading,,XLK-NVDA,coint_filter,,,,,,,,,,,0.46185850937126405,,,,,,,,,,,,,,,,False,False,coint_filter_fail
121,pair_trading,,XLK-AAPL,coint_filter,,,,,,,,,,,0.189768076937123,,,,,,,,,,,,,,,,False,False,coint_filter_fail
122,pair_trading,,XLK-MSFT,coint_filter,,,,,,,,,,,0.2977819522775341,,,,,,,,,,,,,,,,False,False,coint_filter_fail
123,pair_trading,XLK_top20_cleaned,XLK-AVGO,coint_filter,zscore,ols,aggressive_cross,0.0,0.0,1.0,0.5,120.0,4.0,0.1460693017072228,0.0768712027156273,199.77179405295615,-140.5658691376556,401.48083198417095,-542.0467011218266,106.0,2.85617578753063,-325.7188043366097,966.0283495637559,-1291.7471539003652,299.0,2.965835366893423,-2257.7755034641214,-1739.8572338237695,-4.837357686610835,1.0,False,False,
124,pair_trading,XLK_top20_cleaned,XLK-AVGO,coint_filter,zscore,ols,aggressive_cross,0.0,0.0,1.0,0.5,120.0,,0.1460693017072228,0.0768712027156273,199.77179405295615,-68.89619046122688,327.4074488024216,-396.3036392636484,96.0,4.752185086150425,-325.7188043366097,966.0283495637559,-1291.7471539003652,299.0,2.965835366893423,-2257.7755034641214,-1739.8572338237695,-4.837357686610835,1.0,False,False,
125,pair_trading,XLK_top20_cleaned,XLK-AVGO,coint_filter,zscore,ols,aggressive_cross,0.0,0.0,1.5,0.5,120.0,4.0,0.1460693017072228,0.0768712027156273,199.77179405295615,-117.06412145203898,304.6383790430177,-421.7025004950567,76.0,2.6023206364541647,85.37450187067843,620.0306669826348,-534.6561651119562,203.0,7.262480639967073,-1154.686832094591,-920.4213634584822,-2.3125114423789443,1.0,False,False,
126,pair_trading,XLK_top20_cleaned,XLK-AVGO,coint_filter,zscore,ols,aggressive_cross,0.0,0.0,1.5,0.5,120.0,,0.1460693017072228,0.0768712027156273,199.77179405295615,-92.22015302183195,232.7864123411421,-325.0065653629741,66.0,2.5242466501441707,85.37450187067843,620.0306669826348,-534.6561651119562,203.0,7.262480639967073,-1154.686832094591,-920.4213634584822,-2.3125114423789443,1.0,False,False,
127,pair_trading,XLK_top20_cleaned,XLK-AVGO,coint_filter,zscore,ols,aggressive_cross,0.0,0.0,2.0,0.5,120.0,4.0,0.1460693017072228,0.0768712027156273,199.77179405295615,-154.0420638425558,181.5313166750599,-335.57338051761576,50.0,1.1784528988173029,-8.078529212347929,279.95367983615733,-288.03220904850514,115.0,34.654040664760075,-567.9858888846625,-416.4583351449617,-1.5683661041942498,1.0,False,False,
128,pair_trading,XLK_top20_cleaned,XLK-AVGO,coint_filter,zscore,ols,aggressive_cross,0.0,0.0,2.0,0.5,120.0,,0.1460693017072228,0.0768712027156273,199.77179405295615,-97.5604582771365,116.98109629546755,-214.54155457260399,40.0,1.1990625952490253,-8.078529212347929,279.95367983615733,-288.03220904850514,115.0,34.654040664760075,-567.9858888846625,-416.4583351449617,-1.5683661041942498,1.0,True,False,
129,pair_trading,,XLK-MU,coint_filter,,,,,,,,,,,0.7709219780992628,,,,,,,,,,,,,,,,False,False,coint_filter_fail
130,pair_trading,,XLK-AMD,coint_filter,,,,,,,,,,,0.13917399440730255,,,,,,,,,,,,,,,,False,False,coint_filter_fail
131,pair_trading,,XLK-INTC,coint_filter,,,,,,,,,,,0.7227834737386631,,,,,,,,,,,,,,,,False,False,coint_filter_fail
132,pair_trading,,XLK-CSCO,coint_filter,,,,,,,,,,,0.7699862889737213,,,,,,,,,,,,,,,,False,False,coint_filter_fail
133,pair_trading,,XLK-PLTR,coint_filter,,,,,,,,,,,0.3283475828923219,,,,,,,,,,,,,,,,False,False,coint_filter_fail
134,pair_trading,,XLK-LRCX,coint_filter,,,,,,,,,,,0.8336242722019149,,,,,,,,,,,,,,,,False,False,coint_filter_fail
135,pair_trading,,XLK-AMAT,coint_filter,,,,,,,,,,,0.7005304277500676,,,,,,,,,,,,,,,,False,False,coint_filter_fail
136,pair_trading,XLK_top20_cleaned,XLK-ORCL,coint_filter,zscore,ols,aggressive_cross,0.0,0.0,1.0,0.5,120.0,4.0,0.11882894568938178,0.05799809212512568,213.28375926186595,-373.76240476263297,211.26176114173418,-585.0241659043672,94.0,0.5652300992549028,-201.3747061720522,813.0009881189668,-1014.3756942910192,317.0,4.03725474551083,-1827.3766824099857,-1357.79035725748,-3.678166151707074,1.0,False,False,
137,pair_trading,XLK_top20_cleaned,XLK-ORCL,coint_filter,zscore,ols,aggressive_cross,0.0,0.0,1.0,0.5,120.0,,0.11882894568938178,0.05799809212512568,213.28375926186595,-318.2663151503983,176.66607245439323,-494.93238760479153,84.0,0.5550888172721289,-201.3747061720522,813.0009881189668,-1014.3756942910192,317.0,4.03725474551083,-1827.3766824099857,-1357.79035725748,-3.678166151707074,1.0,False,False,
138,pair_trading,XLK_top20_cleaned,XLK-ORCL,coint_filter,zscore,ols,aggressive_cross,0.0,0.0,1.5,0.5,120.0,4.0,0.11882894568938178,0.05799809212512568,213.28375926186595,-56.09247627119375,236.82378929325066,-292.9162655644444,72.0,4.222024147200492,-55.00859255631006,489.4166065048168,-544.4251990611268,191.0,8.897093776828063,-1033.8418055659438,-818.5223091317243,-2.3704711145360853,1.0,False,False,
139,pair_trading,XLK_top20_cleaned,XLK-ORCL,coint_filter,zscore,ols,aggressive_cross,0.0,0.0,1.5,0.5,120.0,,0.11882894568938178,0.05799809212512568,213.28375926186595,-62.689658471713344,201.5008674816908,-264.1905259534041,62.0,3.214260093195618,-55.00859255631006,489.4166065048168,-544.4251990611268,191.0,8.897093776828063,-1033.8418055659438,-818.5223091317243,-2.3704711145360853,1.0,False,False,
140,pair_trading,XLK_top20_cleaned,XLK-ORCL,coint_filter,zscore,ols,aggressive_cross,0.0,0.0,2.0,0.5,120.0,4.0,0.11882894568938178,0.05799809212512568,213.28375926186595,120.38068684392479,108.08528224800484,12.295404595919907,46.0,0.8978623156398742,22.926424338075222,186.0940628286098,-163.1676384905345,99.0,8.117012059292332,-349.2617013191443,-254.32896505441414,-0.9422199732301201,1.0,False,False,
141,pair_trading,XLK_top20_cleaned,XLK-ORCL,coint_filter,zscore,ols,aggressive_cross,0.0,0.0,2.0,0.5,120.0,,0.11882894568938178,0.05799809212512568,213.28375926186595,151.8856964620676,80.84281395738277,71.0428825046848,36.0,0.5322608767019263,22.926424338075222,186.0940628286098,-163.1676384905345,99.0,8.117012059292332,-349.2617013191443,-254.32896505441414,-0.9422199732301201,1.0,True,False,
142,pair_trading,,XLK-TXN,coint_filter,,,,,,,,,,,0.2693081721383044,,,,,,,,,,,,,,,,False,False,coint_filter_fail
143,pair_trading,,XLK-KLAC,coint_filter,,,,,,,,,,,0.20415231288606434,,,,,,,,,,,,,,,,False,False,coint_filter_fail
144,pair_trading,,XLK-IBM,coint_filter,,,,,,,,,,,0.5055174067090747,,,,,,,,,,,,,,,,False,False,coint_filter_fail
145,pair_trading,,XLK-ADI,coint_filter,,,,,,,,,,,0.5528604935240394,,,,,,,,,,,,,,,,False,False,coint_filter_fail
146,pair_trading,,XLK-QCOM,coint_filter,,,,,,,,,,,0.29771453604037246,,,,,,,,,,,,,,,,False,False,coint_filter_fail
147,pair_trading,XLK_top20_cleaned,XLK-ANET,coint_filter,zscore,ols,aggressive_cross,0.0,0.0,1.0,0.5,120.0,4.0,0.12375269120668982,0.015941952505673547,205.41576085320528,-359.6524922357323,286.9112222735795,-646.5637145093117,86.0,0.797745680809922,-203.635436957062,1081.625453029749,-1285.2608899868108,303.0,5.311577735155288,-2366.8863430165597,-1879.1366040332684,-4.810455975694805,1.0,False,False,
148,pair_trading,XLK_top20_cleaned,XLK-ANET,coint_filter,zscore,ols,aggressive_cross,0.0,0.0,1.0,0.5,120.0,,0.12375269120668982,0.015941952505673547,205.41576085320528,-339.69266160776107,260.0197522399929,-599.7124138477539,82.0,0.7654559006642142,-195.02361540688722,1065.3840474303029,-1260.4076628371897,303.0,5.462846359439807,-2325.791710267493,-1853.5184059685128,-4.719026988227897,1.0,False,False,
149,pair_trading,XLK_top20_cleaned,XLK-ANET,coint_filter,zscore,ols,aggressive_cross,0.0,0.0,1.5,0.5,120.0,4.0,0.12375269120668982,0.015941952505673547,205.41576085320528,2.14081554322558,255.51914431710392,-253.37832877387834,70.0,119.3559833427366,-293.96373835927704,649.1405193943991,-943.104257753676,187.0,2.208233311419627,-1592.2447771480752,-1107.8319204458496,-4.140947006620416,1.0,False,False,
150,pair_trading,XLK_top20_cleaned,XLK-ANET,coint_filter,zscore,ols,aggressive_cross,0.0,0.0,1.5,0.5,120.0,,0.12375269120668982,0.015941952505673547,205.41576085320528,22.10064617119693,228.6276742835173,-206.52702811232035,66.0,10.344841164937543,-289.7153060767495,634.9964635184646,-924.7117695952143,187.0,2.191794669454728,-1559.7082331136792,-1085.6118247789298,-4.061739890794182,1.0,False,False,
151,pair_trading,XLK_top20_cleaned,XLK-ANET,coint_filter,zscore,ols,aggressive_cross,0.0,0.0,2.0,0.5,120.0,4.0,0.12375269120668982,0.015941952505673547,205.41576085320528,29.91506889600183,154.4067817689615,-124.49171287295965,40.0,5.161505136616887,-33.97293787164771,358.08830481159293,-392.06124268324066,108.0,10.540398542053596,-750.1495474948335,-428.363932557254,-2.181842950501742,1.0,False,False,
152,pair_trading,XLK_top20_cleaned,XLK-ANET,coint_filter,zscore,ols,aggressive_cross,0.0,0.0,2.0,0.5,120.0,,0.12375269120668982,0.015941952505673547,205.41576085320528,26.545450826449684,133.27473152122872,-106.72928069477895,36.0,5.020624151104444,-25.54143221415531,360.2868563789406,-385.828288593096,108.0,14.105977039896226,-746.1151449720365,-387.8619535321888,-2.145689750982924,1.0,True,False,
153,pair_trading,,XLK-SNDK,coint_filter,,,,,,,,,,,0.899991533643907,,,,,,,,,,,,,,,,False,False,coint_filter_fail
154,pair_trading,,XLK-APH,coint_filter,,,,,,,,,,,0.8365306258662117,,,,,,,,,,,,,,,,False,False,coint_filter_fail
155,pair_trading,XLK_top20_cleaned,XLK-NVDA,kalman_lagged,zscore,kalman_lagged,aggressive_cross,0.0,0.0,1.0,0.5,120.0,4.0,0.31758231487416755,0.46185850937126405,162.20423739760724,151.27622373110555,309.589051645829,-158.3128279147234,94.0,2.046514938105049,-228.98330531059065,1297.8705142112774,-1526.8538195218682,371.0,5.667970040221312,-2824.724333733146,-1719.324901992263,-6.431607247298052,1.0,False,False,
156,pair_trading,XLK_top20_cleaned,XLK-NVDA,kalman_lagged,zscore,kalman_lagged,aggressive_cross,0.0,0.0,1.0,0.5,120.0,,0.31758231487416755,0.46185850937126405,162.20423739760724,151.27622373110555,309.589051645829,-158.3128279147234,94.0,2.046514938105049,-202.89363338201943,1023.8084880926538,-1226.7021214746733,293.0,5.04603555580756,-2250.510609567327,-1443.2142965489086,-5.187907150577163,1.0,False,False,
157,pair_trading,XLK_top20_cleaned,XLK-NVDA,kalman_lagged,zscore,kalman_lagged,aggressive_cross,0.0,0.0,1.5,0.5,120.0,4.0,0.31758231487416755,0.46185850937126405,162.20423739760724,8.79110205451976,180.7684260670693,-171.97732401254947,54.0,20.562658122496828,-425.1765236592077,862.3797824158925,-1287.5563060750997,271.0,2.0282864514577876,-2149.936088490992,-1522.0642063214032,-6.239080332720637,1.0,False,False,
158,pair_trading,XLK_top20_cleaned,XLK-NVDA,kalman_lagged,zscore,kalman_lagged,aggressive_cross,0.0,0.0,1.5,0.5,120.0,,0.31758231487416755,0.46185850937126405,162.20423739760724,8.79110205451976,180.7684260670693,-171.97732401254947,54.0,20.562658122496828,-399.08685173063645,588.3177562972684,-987.4046080279045,193.0,1.47415970670553,-1575.7223643251734,-1245.953600878049,-4.810062164910276,1.0,False,False,
159,pair_trading,XLK_top20_cleaned,XLK-NVDA,kalman_lagged,zscore,kalman_lagged,aggressive_cross,0.0,0.0,2.0,0.5,120.0,4.0,0.31758231487416755,0.46185850937126405,162.20423739760724,235.16550528597176,127.75280297694269,107.4127023090291,34.0,0.5432463524851979,-325.28774893519187,607.188810344098,-932.4765592792896,195.0,1.8666205915583687,-1539.6653696233875,-952.4911626240223,-5.641777232875391,1.0,True,False,
160,pair_trading,XLK_top20_cleaned,XLK-NVDA,kalman_lagged,zscore,kalman_lagged,aggressive_cross,0.0,0.0,2.0,0.5,120.0,,0.31758231487416755,0.46185850937126405,162.20423739760724,235.16550528597176,127.75280297694269,107.4127023090291,34.0,0.5432463524851979,-299.1980770066206,333.1267842254741,-632.3248612320946,117.0,1.1133988144519482,-965.4516454575688,-676.3805571806681,-3.857749941055502,1.0,False,False,
161,pair_trading,XLK_top20_cleaned,XLK-AAPL,kalman_lagged,zscore,kalman_lagged,aggressive_cross,0.0,0.0,1.0,0.5,120.0,4.0,0.1239698593839163,0.189768076937123,216.37550743972142,-87.1967436009534,229.1605153610293,-316.35725896198255,90.0,2.6280857047799624,-513.0166095055378,762.4780167651575,-1275.4946262706953,291.0,1.4862638024528265,-2037.9726430358526,-1509.5553977691986,-4.531140257591638,1.0,False,False,
162,pair_trading,XLK_top20_cleaned,XLK-AAPL,kalman_lagged,zscore,kalman_lagged,aggressive_cross,0.0,0.0,1.0,0.5,120.0,,0.1239698593839163,0.189768076937123,216.37550743972142,-87.1967436009534,229.1605153610293,-316.35725896198255,90.0,2.6280857047799624,-513.0166095055378,762.4780167651575,-1275.4946262706953,291.0,1.4862638024528265,-2037.9726430358526,-1509.5553977691986,-4.531140257591638,1.0,False,False,
163,pair_trading,XLK_top20_cleaned,XLK-AAPL,kalman_lagged,zscore,kalman_lagged,aggressive_cross,0.0,0.0,1.5,0.5,120.0,4.0,0.1239698593839163,0.189768076937123,216.37550743972142,-296.7921862024524,146.88889679746174,-443.6810829999141,56.0,0.4949217116425823,-114.06616874565363,480.9485407076043,-595.0147094532581,197.0,4.21639953367795,-1075.9632501608623,-673.718520304408,-2.472100922612423,1.0,False,False,
164,pair_trading,XLK_top20_cleaned,XLK-AAPL,kalman_lagged,zscore,kalman_lagged,aggressive_cross,0.0,0.0,1.5,0.5,120.0,,0.1239698593839163,0.189768076937123,216.37550743972142,-296.7921862024524,146.88889679746174,-443.6810829999141,56.0,0.4949217116425823,-114.06616874565363,480.9485407076043,-595.0147094532581,197.0,4.21639953367795,-1075.9632501608623,-673.718520304408,-2.472100922612423,1.0,False,False,
165,pair_trading,XLK_top20_cleaned,XLK-AAPL,kalman_lagged,zscore,kalman_lagged,aggressive_cross,0.0,0.0,2.0,0.5,120.0,4.0,0.1239698593839163,0.189768076937123,216.37550743972142,53.46922704469976,76.84938812502163,-23.38016108032184,32.0,1.4372638688189057,290.9605051374115,329.00678184279707,-38.04627670538559,106.0,1.130760965951092,-367.05305854818266,-58.14104902355787,-0.20195983521119665,1.0,True,False,
166,pair_trading,XLK_top20_cleaned,XLK-AAPL,kalman_lagged,zscore,kalman_lagged,aggressive_cross,0.0,0.0,2.0,0.5,120.0,,0.1239698593839163,0.189768076937123,216.37550743972142,53.46922704469976,76.84938812502163,-23.38016108032184,32.0,1.4372638688189057,290.9605051374115,329.00678184279707,-38.04627670538559,106.0,1.130760965951092,-367.05305854818266,-58.14104902355787,-0.20195983521119665,1.0,False,False,
167,pair_trading,XLK_top20_cleaned,XLK-MSFT,kalman_lagged,zscore,kalman_lagged,aggressive_cross,0.0,0.0,1.0,0.5,120.0,4.0,0.08924998178728798,0.2977819522775341,222.94252116231624,-434.74797050114097,291.35215839088664,-726.1001288920276,84.0,0.670163354770904,-653.6068385506072,890.3632408260222,-1543.9700793766292,303.0,1.3622306076240411,-2434.3333202026515,-1860.024683195992,-5.440113168728455,1.0,False,False,
168,pair_trading,XLK_top20_cleaned,XLK-MSFT,kalman_lagged,zscore,kalman_lagged,aggressive_cross,0.0,0.0,1.0,0.5,120.0,,0.08924998178728798,0.2977819522775341,222.94252116231624,-396.8305631213707,279.0727151259024,-675.903278247273,84.0,0.703254086406011,-653.6068385506072,890.3632408260222,-1543.9700793766292,303.0,1.3622306076240411,-2434.3333202026515,-1860.024683195992,-5.440113168728455,1.0,False,False,
169,pair_trading,XLK_top20_cleaned,XLK-MSFT,kalman_lagged,zscore,kalman_lagged,aggressive_cross,0.0,0.0,1.5,0.5,120.0,4.0,0.08924998178728798,0.2977819522775341,222.94252116231624,-134.78491302396475,184.88026645741084,-319.6651794813755,60.0,1.3716688486087396,28.94913501621188,627.8998009165847,-598.9506659003729,207.0,21.689760352596128,-1226.8504668169576,-741.1508923656585,-2.4510089786188813,1.0,False,False,
170,pair_trading,XLK_top20_cleaned,XLK-MSFT,kalman_lagged,zscore,kalman_lagged,aggressive_cross,0.0,0.0,1.5,0.5,120.0,,0.08924998178728798,0.2977819522775341,222.94252116231624,-103.47299233281637,174.0758419327701,-277.54883426558644,60.0,1.6823311862177788,28.94913501621188,627.8998009165847,-598.9506659003729,207.0,21.689760352596128,-1226.8504668169576,-741.1508923656585,-2.4510089786188813,1.0,False,False,
171,pair_trading,XLK_top20_cleaned,XLK-MSFT,kalman_lagged,zscore,kalman_lagged,aggressive_cross,0.0,0.0,2.0,0.5,120.0,4.0,0.08924998178728798,0.2977819522775341,222.94252116231624,-160.82128801045175,128.46461889127812,-289.28590690173,38.0,0.7988035693566217,69.2877258472553,300.0859935517086,-230.79826770445322,106.0,4.3310123096441036,-530.884261256162,-210.08679590826466,-1.2488601826426968,1.0,False,False,
172,pair_trading,XLK_top20_cleaned,XLK-MSFT,kalman_lagged,zscore,kalman_lagged,aggressive_cross,0.0,0.0,2.0,0.5,120.0,,0.08924998178728798,0.2977819522775341,222.94252116231624,-136.57397174449588,105.82296368259811,-242.39693542709404,36.0,0.7748399078601368,69.2877258472553,300.0859935517086,-230.79826770445322,106.0,4.3310123096441036,-530.884261256162,-210.08679590826466,-1.2488601826426968,1.0,True,False,
173,pair_trading,XLK_top20_cleaned,XLK-AVGO,kalman_lagged,zscore,kalman_lagged,aggressive_cross,0.0,0.0,1.0,0.5,120.0,4.0,0.1201542430341937,0.0768712027156273,183.7871439288373,-126.55883252554908,446.97627912641883,-573.535111651968,110.0,3.5317667697051918,70.5263366419892,1134.5803651140805,-1064.0540284720914,303.0,16.08732877865921,-2198.6343935861714,-1334.1924999770777,-4.056849312886405,1.0,False,False,
174,pair_trading,XLK_top20_cleaned,XLK-AVGO,kalman_lagged,zscore,kalman_lagged,aggressive_cross,0.0,0.0,1.0,0.5,120.0,,0.1201542430341937,0.0768712027156273,183.7871439288373,-60.77580861611871,403.11177093195755,-463.88757954807636,110.0,6.6327668872026475,70.5263366419892,1134.5803651140805,-1064.0540284720914,303.0,16.08732877865921,-2198.6343935861714,-1334.1924999770777,-4.056849312886405,1.0,False,False,
175,pair_trading,XLK_top20_cleaned,XLK-AVGO,kalman_lagged,zscore,kalman_lagged,aggressive_cross,0.0,0.0,1.5,0.5,120.0,4.0,0.1201542430341937,0.0768712027156273,183.7871439288373,-308.0133060205704,288.82920135513916,-596.8425073757094,66.0,0.9377166366178024,-54.82209553909066,632.053689523123,-686.8757850622137,201.0,11.529177848964927,-1318.9294745853367,-896.7189022252101,-2.96907053493686,1.0,False,False,
176,pair_trading,XLK_top20_cleaned,XLK-AVGO,kalman_lagged,zscore,kalman_lagged,aggressive_cross,0.0,0.0,1.5,0.5,120.0,,0.1201542430341937,0.0768712027156273,183.7871439288373,-242.23028211114,244.96469316067783,-487.19497527181784,66.0,1.011288477335312,-54.82209553909066,632.053689523123,-686.8757850622137,201.0,11.529177848964927,-1318.9294745853367,-896.7189022252101,-2.96907053493686,1.0,False,False,
177,pair_trading,XLK_top20_cleaned,XLK-AVGO,kalman_lagged,zscore,kalman_lagged,aggressive_cross,0.0,0.0,2.0,0.5,120.0,4.0,0.1201542430341937,0.0768712027156273,183.7871439288373,-202.13203419816253,137.73951308977917,-339.87154728794167,32.0,0.6814333692142266,33.746183337761835,462.6366337060862,-428.8904503683244,128.0,13.709302443941795,-891.5270840744105,-516.3063512670116,-2.229844012762896,1.0,False,False,
178,pair_trading,XLK_top20_cleaned,XLK-AVGO,kalman_lagged,zscore,kalman_lagged,aggressive_cross,0.0,0.0,2.0,0.5,120.0,,0.1201542430341937,0.0768712027156273,183.7871439288373,-145.44482773749576,105.3508842754285,-250.7957120129243,32.0,0.7243357217595231,33.746183337761835,462.6366337060862,-428.8904503683244,128.0,13.709302443941795,-891.5270840744105,-516.3063512670116,-2.229844012762896,1.0,True,False,
179,pair_trading,XLK_top20_cleaned,XLK-MU,kalman_lagged,zscore,kalman_lagged,aggressive_cross,0.0,0.0,1.0,0.5,120.0,4.0,0.13795839680072597,0.7709219780992628,180.0213578542554,-190.90764869360132,354.04818249779703,-544.9558311913983,88.0,1.8545521089415822,-791.5782132617531,1030.8262871191482,-1822.4045003809015,301.0,1.302241862963303,-2853.2307875000497,-2044.5392132812158,-6.885934691005206,1.0,False,False,
180,pair_trading,XLK_top20_cleaned,XLK-MU,kalman_lagged,zscore,kalman_lagged,aggressive_cross,0.0,0.0,1.0,0.5,120.0,,0.13795839680072597,0.7709219780992628,180.0213578542554,-190.90764869360132,354.04818249779703,-544.9558311913983,88.0,1.8545521089415822,-766.1847221799461,1019.8429236886062,-1786.0276458685526,301.0,1.3310666398919475,-2805.8705695571584,-2047.2442916467662,-6.752972875655461,1.0,False,False,
181,pair_trading,XLK_top20_cleaned,XLK-MU,kalman_lagged,zscore,kalman_lagged,aggressive_cross,0.0,0.0,1.5,0.5,120.0,4.0,0.13795839680072597,0.7709219780992628,180.0213578542554,-249.94046423063332,215.5556423638005,-465.49610659443385,60.0,0.8624279507014754,-294.9402941198203,776.4950779577883,-1071.435372077609,215.0,2.632719548459985,-1847.9304500353971,-1151.6877901062503,-4.584795208855872,1.0,True,False,
182,pair_trading,XLK_top20_cleaned,XLK-MU,kalman_lagged,zscore,kalman_lagged,aggressive_cross,0.0,0.0,1.5,0.5,120.0,,0.13795839680072597,0.7709219780992628,180.0213578542554,-249.94046423063332,215.5556423638005,-465.49610659443385,60.0,0.8624279507014754,-269.5468030380135,765.5117145272463,-1035.05851756526,215.0,2.839995525449761,-1800.5702320925063,-1154.3928684718007,-4.432935675894987,1.0,False,False,
183,pair_trading,XLK_top20_cleaned,XLK-MU,kalman_lagged,zscore,kalman_lagged,aggressive_cross,0.0,0.0,2.0,0.5,120.0,4.0,0.13795839680072597,0.7709219780992628,180.0213578542554,-324.74791948207115,173.2242595694768,-497.972179051548,42.0,0.533411452937854,-383.5194617204658,411.48898560228645,-795.0084473227523,109.0,1.0729285647105091,-1206.4974329250385,-744.1965118020516,-4.51323256485984,1.0,False,False,
184,pair_trading,XLK_top20_cleaned,XLK-MU,kalman_lagged,zscore,kalman_lagged,aggressive_cross,0.0,0.0,2.0,0.5,120.0,,0.13795839680072597,0.7709219780992628,180.0213578542554,-324.74791948207115,173.2242595694768,-497.972179051548,42.0,0.533411452937854,-358.125970638659,400.50562217174445,-758.6315928104034,109.0,1.1183372751702656,-1159.1372149821477,-746.901590167602,-4.313248594851452,1.0,False,False,
185,pair_trading,XLK_top20_cleaned,XLK-AMD,kalman_lagged,zscore,kalman_lagged,aggressive_cross,0.0,0.0,1.0,0.5,120.0,4.0,0.12060327439939197,0.13917399440730255,184.30642295223055,201.85823562228842,377.0991896100605,-175.2409539877719,102.0,1.8681387382959105,-84.6023422376424,995.153217180381,-1079.7555594180233,268.0,11.762714729399113,-2074.908776598404,-1131.700928868137,-4.29659960452133,1.0,False,False,
186,pair_trading,XLK_top20_cleaned,XLK-AMD,kalman_lagged,zscore,kalman_lagged,aggressive_cross,0.0,0.0,1.0,0.5,120.0,,0.12060327439939197,0.13917399440730255,184.30642295223055,201.85823562228842,377.0991896100605,-175.2409539877719,102.0,1.8681387382959105,-84.6023422376424,995.153217180381,-1079.7555594180233,268.0,11.762714729399113,-2074.908776598404,-1131.700928868137,-4.29659960452133,1.0,False,False,
187,pair_trading,XLK_top20_cleaned,XLK-AMD,kalman_lagged,zscore,kalman_lagged,aggressive_cross,0.0,0.0,1.5,0.5,120.0,4.0,0.12060327439939197,0.13917399440730255,184.30642295223055,282.3044159865977,231.67960417342937,50.62481181316838,66.0,0.8206729723435437,-227.9282082659781,707.3149330847256,-935.2431413507034,194.0,3.103235612940601,-1642.5580744354293,-913.8772979707818,-4.238066584667057,1.0,False,False,
188,pair_trading,XLK_top20_cleaned,XLK-AMD,kalman_lagged,zscore,kalman_lagged,aggressive_cross,0.0,0.0,1.5,0.5,120.0,,0.12060327439939197,0.13917399440730255,184.30642295223055,282.3044159865977,231.67960417342937,50.62481181316838,66.0,0.8206729723435437,-227.9282082659781,707.3149330847256,-935.2431413507034,194.0,3.103235612940601,-1642.5580744354293,-913.8772979707818,-4.238066584667057,1.0,False,False,
189,pair_trading,XLK_top20_cleaned,XLK-AMD,kalman_lagged,zscore,kalman_lagged,aggressive_cross,0.0,0.0,2.0,0.5,120.0,4.0,0.12060327439939197,0.13917399440730255,184.30642295223055,332.6288874392572,219.98076559068866,112.64812184856848,42.0,0.6613399313697921,63.18525768000554,438.70514933963614,-375.51989165963056,108.0,6.943156765481717,-814.2250409992668,-437.9049472450104,-2.100945664472818,1.0,True,False,
190,pair_trading,XLK_top20_cleaned,XLK-AMD,kalman_lagged,zscore,kalman_lagged,aggressive_cross,0.0,0.0,2.0,0.5,120.0,,0.12060327439939197,0.13917399440730255,184.30642295223055,332.6288874392572,219.98076559068866,112.64812184856848,42.0,0.6613399313697921,63.18525768000554,438.70514933963614,-375.51989165963056,108.0,6.943156765481717,-814.2250409992668,-437.9049472450104,-2.100945664472818,1.0,False,False,
191,pair_trading,XLK_top20_cleaned,XLK-INTC,kalman_lagged,zscore,kalman_lagged,aggressive_cross,0.0,0.0,1.0,0.5,120.0,4.0,0.17271439050481224,0.7227834737386631,197.99916345148714,-59.94424212214924,300.8431436982565,-360.78738582040575,94.0,5.018716277790686,-111.37211040414323,827.007237737933,-938.3793481420763,272.0,7.425622399871188,-1765.3865858800093,-1175.972367857223,-3.899420131184644,1.0,False,False,
192,pair_trading,XLK_top20_cleaned,XLK-INTC,kalman_lagged,zscore,kalman_lagged,aggressive_cross,0.0,0.0,1.0,0.5,120.0,,0.17271439050481224,0.7227834737386631,197.99916345148714,-59.94424212214924,300.8431436982565,-360.78738582040575,94.0,5.018716277790686,-111.37211040414323,827.007237737933,-938.3793481420763,272.0,7.425622399871188,-1765.3865858800093,-1175.972367857223,-3.899420131184644,1.0,False,False,
193,pair_trading,XLK_top20_cleaned,XLK-INTC,kalman_lagged,zscore,kalman_lagged,aggressive_cross,0.0,0.0,1.5,0.5,120.0,4.0,0.17271439050481224,0.7227834737386631,197.99916345148714,-383.00636701226574,151.81020820995127,-534.8165752222169,52.0,0.39636471162133335,-156.785632112655,539.0476266972873,-695.8332588099422,180.0,3.4381187831673636,-1234.8808855072298,-833.5661957496719,-3.2496638997011758,1.0,False,False,
194,pair_trading,XLK_top20_cleaned,XLK-INTC,kalman_lagged,zscore,kalman_lagged,aggressive_cross,0.0,0.0,1.5,0.5,120.0,,0.17271439050481224,0.7227834737386631,197.99916345148714,-383.00636701226574,151.81020820995127,-534.8165752222169,52.0,0.39636471162133335,-156.785632112655,539.0476266972873,-695.8332588099422,180.0,3.4381187831673636,-1234.8808855072298,-833.5661957496719,-3.2496638997011758,1.0,False,False,
195,pair_trading,XLK_top20_cleaned,XLK-INTC,kalman_lagged,zscore,kalman_lagged,aggressive_cross,0.0,0.0,2.0,0.5,120.0,4.0,0.17271439050481224,0.7227834737386631,197.99916345148714,-195.5760276635561,119.82149297353821,-315.3975206370943,38.0,0.6126594061909455,177.70942199874926,321.8637453192722,-144.15432332052302,104.0,1.8111799683954715,-466.0180686397952,-150.4735297678089,-0.8914591775473243,1.0,True,False,
196,pair_trading,XLK_top20_cleaned,XLK-INTC,kalman_lagged,zscore,kalman_lagged,aggressive_cross,0.0,0.0,2.0,0.5,120.0,,0.17271439050481224,0.7227834737386631,197.99916345148714,-195.5760276635561,119.82149297353821,-315.3975206370943,38.0,0.6126594061909455,177.70942199874926,321.8637453192722,-144.15432332052302,104.0,1.8111799683954715,-466.0180686397952,-150.4735297678089,-0.8914591775473243,1.0,False,False,
197,pair_trading,XLK_top20_cleaned,XLK-CSCO,kalman_lagged,zscore,kalman_lagged,aggressive_cross,0.0,0.0,1.0,0.5,120.0,4.0,0.3066415117168932,0.7699862889737213,219.4775597758778,-366.89089688297315,283.64757458584205,-650.5384714688151,114.0,0.7731115080686148,-616.5805855599812,872.4192514789405,-1488.9998370389212,307.0,1.4149314329879614,-2361.4190885178623,-1553.7793130937519,-5.991615784243388,1.0,False,False,
198,pair_trading,XLK_top20_cleaned,XLK-CSCO,kalman_lagged,zscore,kalman_lagged,aggressive_cross,0.0,0.0,1.0,0.5,120.0,,0.3066415117168932,0.7699862889737213,219.4775597758778,-385.97812808917234,248.79351677827805,-634.7716448674505,98.0,0.6445793133666875,-564.8447689904691,747.4797135378926,-1312.3244825283614,265.0,1.3233365246062945,-2059.804196066254,-1475.384776769148,-5.2883245706524376,1.0,False,False,
199,pair_trading,XLK_top20_cleaned,XLK-CSCO,kalman_lagged,zscore,kalman_lagged,aggressive_cross,0.0,0.0,1.5,0.5,120.0,4.0,0.3066415117168932,0.7699862889737213,219.4775597758778,-355.49527792372436,253.2938266715547,-608.789104595279,90.0,0.7125096798779472,-649.7208098198176,632.7458980374472,-1282.466707857265,214.0,0.9738735291746651,-1915.2126058947117,-1226.9775046222896,-6.0083624263133055,1.0,False,False,
200,pair_trading,XLK_top20_cleaned,XLK-CSCO,kalman_lagged,zscore,kalman_lagged,aggressive_cross,0.0,0.0,1.5,0.5,120.0,,0.3066415117168932,0.7699862889737213,219.4775597758778,-369.51491075002116,224.36533230114523,-593.8802430511663,72.0,0.6071888461706206,-596.2874182609886,512.1381413597163,-1108.425559620705,172.0,0.8588779935241883,-1620.5637009804213,-1150.1038146563378,-5.203056496488219,1.0,False,False,
201,pair_trading,XLK_top20_cleaned,XLK-CSCO,kalman_lagged,zscore,kalman_lagged,aggressive_cross,0.0,0.0,2.0,0.5,120.0,4.0,0.3066415117168932,0.7699862889737213,219.4775597758778,-352.2064148117372,110.49986018406084,-462.7062749957981,54.0,0.31373608071030074,206.81425425287838,396.0832282158036,-189.26897396292506,138.0,1.9151640666484238,-585.3522021787286,-132.01489816630348,-1.123216134974861,1.0,False,False,
202,pair_trading,XLK_top20_cleaned,XLK-CSCO,kalman_lagged,zscore,kalman_lagged,aggressive_cross,0.0,0.0,2.0,0.5,120.0,,0.3066415117168932,0.7699862889737213,219.4775597758778,-364.54068422555224,69.91827093177932,-434.4589551573316,36.0,0.1917982654811686,239.6212410943837,279.7969216787116,-40.17568058432793,98.0,1.1676632689190656,-319.97260226303956,-87.44773405029646,-0.23864411143152148,1.0,True,False,
203,pair_trading,XLK_top20_cleaned,XLK-PLTR,kalman_lagged,zscore,kalman_lagged,aggressive_cross,0.0,0.0,1.0,0.5,120.0,4.0,0.13274093108975588,0.3283475828923219,171.66878490285697,-25.04818576860881,254.57210277052187,-279.62028853913074,88.0,10.163295063451653,-580.4565408497958,824.1454867044918,-1404.6020275542878,289.0,1.4198228957811936,-2228.7475142587796,-1846.7804204905335,-5.523643405440618,1.0,False,False,
204,pair_trading,XLK_top20_cleaned,XLK-PLTR,kalman_lagged,zscore,kalman_lagged,aggressive_cross,0.0,0.0,1.0,0.5,120.0,,0.13274093108975588,0.3283475828923219,171.66878490285697,-25.04818576860881,254.57210277052187,-279.62028853913074,88.0,10.163295063451653,-567.4807621949884,822.0785488682536,-1389.5593110632424,287.0,1.4486456698346797,-2211.6378599314958,-1833.5622002460705,-5.463521922621345,1.0,False,False,
205,pair_trading,XLK_top20_cleaned,XLK-PLTR,kalman_lagged,zscore,kalman_lagged,aggressive_cross,0.0,0.0,1.5,0.5,120.0,4.0,0.13274093108975588,0.3283475828923219,171.66878490285697,-51.23997098563565,181.48888411939518,-232.72885510503085,56.0,3.5419396347877097,-72.10773370158117,561.695634076734,-633.8033677783153,202.0,7.789672553034588,-1195.4990018550495,-906.287010246055,-2.929551523981486,1.0,False,False,
206,pair_trading,XLK_top20_cleaned,XLK-PLTR,kalman_lagged,zscore,kalman_lagged,aggressive_cross,0.0,0.0,1.5,0.5,120.0,,0.13274093108975588,0.3283475828923219,171.66878490285697,-51.23997098563565,181.48888411939518,-232.72885510503085,56.0,3.5419396347877097,-59.13195504677379,559.628696240496,-618.7606512872699,200.0,9.464065509043728,-1178.3893475277657,-893.0687900015921,-2.8593305854052495,1.0,False,False,
207,pair_trading,XLK_top20_cleaned,XLK-PLTR,kalman_lagged,zscore,kalman_lagged,aggressive_cross,0.0,0.0,2.0,0.5,120.0,4.0,0.13274093108975588,0.3283475828923219,171.66878490285697,-92.55904695495795,102.5717643382637,-195.13081129322165,34.0,1.1081765393303828,-179.76127100518025,215.0681940759239,-394.8294650811042,80.0,1.1964100658240573,-609.8976591570281,-423.04063851190966,-2.5868762167230948,1.0,True,False,
208,pair_trading,XLK_top20_cleaned,XLK-PLTR,kalman_lagged,zscore,kalman_lagged,aggressive_cross,0.0,0.0,2.0,0.5,120.0,,0.13274093108975588,0.3283475828923219,171.66878490285697,-92.55904695495795,102.5717643382637,-195.13081129322165,34.0,1.1081765393303828,-166.7854923503729,213.00125623968577,-379.7867485900588,78.0,1.2770970258745622,-592.7880048297445,-409.8224182674468,-2.487114773802422,1.0,False,False,
209,pair_trading,XLK_top20_cleaned,XLK-LRCX,kalman_lagged,zscore,kalman_lagged,aggressive_cross,0.0,0.0,1.0,0.5,120.0,4.0,0.1637495544317184,0.8336242722019149,178.9987127363511,266.0093879213933,414.4364340193744,-148.42704609798113,90.0,1.5579767212645963,-1221.0783851523156,1288.3987636960187,-2509.4771488483343,297.0,1.055131905831996,-3797.875912544353,-2691.231412006169,-8.78716444549406,1.0,False,False,
210,pair_trading,XLK_top20_cleaned,XLK-LRCX,kalman_lagged,zscore,kalman_lagged,aggressive_cross,0.0,0.0,1.0,0.5,120.0,,0.1637495544317184,0.8336242722019149,178.9987127363511,266.0093879213933,414.4364340193744,-148.42704609798113,90.0,1.5579767212645963,-1221.0783851523156,1288.3987636960187,-2509.4771488483343,297.0,1.055131905831996,-3797.875912544353,-2691.231412006169,-8.78716444549406,1.0,False,False,
211,pair_trading,XLK_top20_cleaned,XLK-LRCX,kalman_lagged,zscore,kalman_lagged,aggressive_cross,0.0,0.0,1.5,0.5,120.0,4.0,0.1637495544317184,0.8336242722019149,178.9987127363511,198.66287055633396,287.05429001126294,-88.39141945492898,44.0,1.4449317540182438,-566.750658956618,895.5898306684073,-1462.3404896250256,211.0,1.580218419714198,-2357.9303202934325,-1492.721075923426,-5.897638633789666,1.0,False,False,
212,pair_trading,XLK_top20_cleaned,XLK-LRCX,kalman_lagged,zscore,kalman_lagged,aggressive_cross,0.0,0.0,1.5,0.5,120.0,,0.1637495544317184,0.8336242722019149,178.9987127363511,198.66287055633396,287.05429001126294,-88.39141945492898,44.0,1.4449317540182438,-566.750658956618,895.5898306684073,-1462.3404896250256,211.0,1.580218419714198,-2357.9303202934325,-1492.721075923426,-5.897638633789666,1.0,False,False,
213,pair_trading,XLK_top20_cleaned,XLK-LRCX,kalman_lagged,zscore,kalman_lagged,aggressive_cross,0.0,0.0,2.0,0.5,120.0,4.0,0.1637495544317184,0.8336242722019149,178.9987127363511,107.24101245772161,93.86900731805949,13.372005139662136,26.0,0.8753088502877212,-182.32361135850073,513.2729800953371,-695.5965914538378,106.0,2.8151755895515613,-1208.869571549175,-699.9251105377316,-3.7278406379265823,1.0,True,False,
214,pair_trading,XLK_top20_cleaned,XLK-LRCX,kalman_lagged,zscore,kalman_lagged,aggressive_cross,0.0,0.0,2.0,0.5,120.0,,0.1637495544317184,0.8336242722019149,178.9987127363511,107.24101245772161,93.86900731805949,13.372005139662136,26.0,0.8753088502877212,-182.32361135850073,513.2729800953371,-695.5965914538378,106.0,2.8151755895515613,-1208.869571549175,-699.9251105377316,-3.7278406379265823,1.0,False,False,
215,pair_trading,XLK_top20_cleaned,XLK-AMAT,kalman_lagged,zscore,kalman_lagged,aggressive_cross,0.0,0.0,1.0,0.5,120.0,4.0,0.12605375310077455,0.7005304277500676,174.38330731912515,289.262347624927,482.7285788808751,-193.46623125594806,98.0,1.6688261809546219,-1112.183643311875,1269.1790038058914,-2381.3626471177663,301.0,1.1411595660825524,-3650.5416509236575,-2566.5092861644707,-8.412151696179318,1.0,False,False,
216,pair_trading,XLK_top20_cleaned,XLK-AMAT,kalman_lagged,zscore,kalman_lagged,aggressive_cross,0.0,0.0,1.0,0.5,120.0,,0.12605375310077455,0.7005304277500676,174.38330731912515,289.262347624927,482.7285788808751,-193.46623125594806,98.0,1.6688261809546219,-1112.183643311875,1269.1790038058914,-2381.3626471177663,301.0,1.1411595660825524,-3650.5416509236575,-2566.5092861644707,-8.412151696179318,1.0,False,False,
217,pair_trading,XLK_top20_cleaned,XLK-AMAT,kalman_lagged,zscore,kalman_lagged,aggressive_cross,0.0,0.0,1.5,0.5,120.0,4.0,0.12605375310077455,0.7005304277500676,174.38330731912515,120.06088583607257,266.06561401663186,-146.00472818055923,58.0,2.2160890465185275,-678.6828146448634,909.848032606353,-1588.5308472512165,221.0,1.3406086215435589,-2498.3788798575692,-1727.8406427029424,-6.376144075631805,1.0,True,False,
218,pair_trading,XLK_top20_cleaned,XLK-AMAT,kalman_lagged,zscore,kalman_lagged,aggressive_cross,0.0,0.0,1.5,0.5,120.0,,0.12605375310077455,0.7005304277500676,174.38330731912515,120.06088583607257,266.06561401663186,-146.00472818055923,58.0,2.2160890465185275,-678.6828146448634,909.848032606353,-1588.5308472512165,221.0,1.3406086215435589,-2498.3788798575692,-1727.8406427029424,-6.376144075631805,1.0,False,False,
219,pair_trading,XLK_top20_cleaned,XLK-AMAT,kalman_lagged,zscore,kalman_lagged,aggressive_cross,0.0,0.0,2.0,0.5,120.0,4.0,0.12605375310077455,0.7005304277500676,174.38330731912515,-114.15563438408356,137.0943503727053,-251.24998475678885,30.0,1.2009424774553223,-216.27923989040846,422.2989681966117,-638.5782080870204,102.0,1.9525635859021706,-1060.8771762836323,-546.2459575285558,-3.535384495486511,1.0,False,False,
220,pair_trading,XLK_top20_cleaned,XLK-AMAT,kalman_lagged,zscore,kalman_lagged,aggressive_cross,0.0,0.0,2.0,0.5,120.0,,0.12605375310077455,0.7005304277500676,174.38330731912515,-114.15563438408356,137.0943503727053,-251.24998475678885,30.0,1.2009424774553223,-216.27923989040846,422.2989681966117,-638.5782080870204,102.0,1.9525635859021706,-1060.8771762836323,-546.2459575285558,-3.535384495486511,1.0,False,False,
221,pair_trading,XLK_top20_cleaned,XLK-ORCL,kalman_lagged,zscore,kalman_lagged,aggressive_cross,0.0,0.0,1.0,0.5,120.0,4.0,0.1016056314337366,0.05799809212512568,204.43973943905473,-333.89304078660933,265.25057130300434,-599.1436120896137,86.0,0.7944177892360617,-385.41188327646637,943.4777566151292,-1328.8896398915956,319.0,2.4479726691207055,-2272.3673965067246,-1809.5584538780888,-4.738434357077003,1.0,False,False,
222,pair_trading,XLK_top20_cleaned,XLK-ORCL,kalman_lagged,zscore,kalman_lagged,aggressive_cross,0.0,0.0,1.0,0.5,120.0,,0.1016056314337366,0.05799809212512568,204.43973943905473,-333.89304078660933,265.25057130300434,-599.1436120896137,86.0,0.7944177892360617,-385.41188327646637,943.4777566151292,-1328.8896398915956,319.0,2.4479726691207055,-2272.3673965067246,-1809.5584538780888,-4.738434357077003,1.0,False,False,
223,pair_trading,XLK_top20_cleaned,XLK-ORCL,kalman_lagged,zscore,kalman_lagged,aggressive_cross,0.0,0.0,1.5,0.5,120.0,4.0,0.1016056314337366,0.05799809212512568,204.43973943905473,5.392905303749883,218.0174363900575,-212.6245310863078,66.0,40.42671326686602,-40.89317328955747,618.8694988979787,-659.7626721875365,211.0,15.133809609635113,-1278.632171085515,-989.2271567556023,-2.761263496316422,1.0,False,False,
224,pair_trading,XLK_top20_cleaned,XLK-ORCL,kalman_lagged,zscore,kalman_lagged,aggressive_cross,0.0,0.0,1.5,0.5,120.0,,0.1016056314337366,0.05799809212512568,204.43973943905473,5.392905303749883,218.0174363900575,-212.6245310863078,66.0,40.42671326686602,-40.89317328955747,618.8694988979787,-659.7626721875365,211.0,15.133809609635113,-1278.632171085515,-989.2271567556023,-2.761263496316422,1.0,False,False,
225,pair_trading,XLK_top20_cleaned,XLK-ORCL,kalman_lagged,zscore,kalman_lagged,aggressive_cross,0.0,0.0,2.0,0.5,120.0,4.0,0.1016056314337366,0.05799809212512568,204.43973943905473,61.932659765712025,129.9262214551565,-67.99356168944456,38.0,2.0978627746113365,86.59548301580402,223.03937197920027,-136.44388896339615,97.0,2.575646722110144,-359.4832609425966,-282.81104286824683,-0.8011169847672901,1.0,True,False,
226,pair_trading,XLK_top20_cleaned,XLK-ORCL,kalman_lagged,zscore,kalman_lagged,aggressive_cross,0.0,0.0,2.0,0.5,120.0,,0.1016056314337366,0.05799809212512568,204.43973943905473,61.932659765712025,129.9262214551565,-67.99356168944456,38.0,2.0978627746113365,86.59548301580402,223.03937197920027,-136.44388896339615,97.0,2.575646722110144,-359.4832609425966,-282.81104286824683,-0.8011169847672901,1.0,False,False,
227,pair_trading,XLK_top20_cleaned,XLK-TXN,kalman_lagged,zscore,kalman_lagged,aggressive_cross,0.0,0.0,1.0,0.5,120.0,4.0,0.12121947459663353,0.2693081721383044,213.05026392345474,-320.75858746684673,421.44103052868337,-742.19961799553,94.0,1.313888534854092,-327.79016557650255,1197.8576215189248,-1525.6477870954272,293.0,3.654342769595259,-2723.5054086143523,-1769.432902945617,-5.390710657894359,1.0,False,False,
228,pair_trading,XLK_top20_cleaned,XLK-TXN,kalman_lagged,zscore,kalman_lagged,aggressive_cross,0.0,0.0,1.0,0.5,120.0,,0.12121947459663353,0.2693081721383044,213.05026392345474,-320.75858746684673,421.44103052868337,-742.19961799553,94.0,1.313888534854092,-313.2104953220291,1200.043887373408,-1513.254382695437,293.0,3.8314293591585313,-2713.2982700688453,-1787.7396084269137,-5.348208681725342,1.0,False,False,
229,pair_trading,XLK_top20_cleaned,XLK-TXN,kalman_lagged,zscore,kalman_lagged,aggressive_cross,0.0,0.0,1.5,0.5,120.0,4.0,0.12121947459663353,0.2693081721383044,213.05026392345474,-80.38213318837334,292.55989390628116,-372.9420270946544,68.0,3.6396134601289445,-191.18648037695232,728.8681600471231,-920.0546404240755,192.0,3.8123415348724037,-1648.9228004711986,-1138.094825182635,-3.830291579720545,1.0,False,False,
230,pair_trading,XLK_top20_cleaned,XLK-TXN,kalman_lagged,zscore,kalman_lagged,aggressive_cross,0.0,0.0,1.5,0.5,120.0,,0.12121947459663353,0.2693081721383044,213.05026392345474,-80.38213318837334,292.55989390628116,-372.9420270946544,68.0,3.6396134601289445,-189.2623180977339,752.512156885759,-941.774474983493,192.0,3.976027370103152,-1694.286631869252,-1156.8582545048444,-3.920814406250726,1.0,False,False,
231,pair_trading,XLK_top20_cleaned,XLK-TXN,kalman_lagged,zscore,kalman_lagged,aggressive_cross,0.0,0.0,2.0,0.5,120.0,4.0,0.12121947459663353,0.2693081721383044,213.05026392345474,-161.4412349609326,146.12235919948967,-307.5635941604222,32.0,0.9051117531084919,22.737496351150668,499.98582179475005,-477.24832544359947,116.0,21.989484421377266,-977.2341472383496,-412.43171970820674,-2.4330842405122546,1.0,True,False,
232,pair_trading,XLK_top20_cleaned,XLK-TXN,kalman_lagged,zscore,kalman_lagged,aggressive_cross,0.0,0.0,2.0,0.5,120.0,,0.12121947459663353,0.2693081721383044,213.05026392345474,-161.4412349609326,146.12235919948967,-307.5635941604222,32.0,0.9051117531084919,29.763336238918907,504.5849295514307,-474.8215933125118,116.0,16.953238222388162,-979.4065228639425,-409.6305597237615,-2.418806171822584,1.0,False,False,
233,pair_trading,XLK_top20_cleaned,XLK-KLAC,kalman_lagged,zscore,kalman_lagged,aggressive_cross,0.0,0.0,1.0,0.5,120.0,4.0,0.07228849230119708,0.20415231288606434,200.46157106128695,-12.590961018860842,546.4638836600295,-559.0548446788903,92.0,43.40128468680387,-864.4121241257213,1431.660043508512,-2296.072167634233,295.0,1.6562239278590791,-3727.7322111427447,-2525.388202943386,-8.031471440949229,1.0,False,False,
234,pair_trading,XLK_top20_cleaned,XLK-KLAC,kalman_lagged,zscore,kalman_lagged,aggressive_cross,0.0,0.0,1.0,0.5,120.0,,0.07228849230119708,0.20415231288606434,200.46157106128695,50.138802836697494,527.0111600400321,-476.87235720333445,92.0,10.511043946472196,-864.4121241257213,1431.660043508512,-2296.072167634233,295.0,1.6562239278590791,-3727.7322111427447,-2525.388202943386,-8.031471440949229,1.0,False,False,
235,pair_trading,XLK_top20_cleaned,XLK-KLAC,kalman_lagged,zscore,kalman_lagged,aggressive_cross,0.0,0.0,1.5,0.5,120.0,4.0,0.07228849230119708,0.20415231288606434,200.46157106128695,-24.38486986406016,405.4324351258009,-429.81730498986104,62.0,16.62639322604509,-591.9668222313376,918.3412134774181,-1510.3080357087556,207.0,1.551338992303415,-2428.649249186174,-1654.691776975182,-6.0508795373543025,1.0,False,False,
236,pair_trading,XLK_top20_cleaned,XLK-KLAC,kalman_lagged,zscore,kalman_lagged,aggressive_cross,0.0,0.0,1.5,0.5,120.0,,0.07228849230119708,0.20415231288606434,200.46157106128695,38.34489399149821,385.9797115058033,-347.6348175143052,62.0,10.06600022395113,-591.9668222313376,918.3412134774181,-1510.3080357087556,207.0,1.551338992303415,-2428.649249186174,-1654.691776975182,-6.0508795373543025,1.0,True,False,
237,pair_trading,XLK_top20_cleaned,XLK-KLAC,kalman_lagged,zscore,kalman_lagged,aggressive_cross,0.0,0.0,2.0,0.5,120.0,4.0,0.07228849230119708,0.20415231288606434,200.46157106128695,-309.51977380057264,196.69616479364478,-506.2159385942175,32.0,0.6354882028324902,-331.0115572324938,457.5976389968703,-788.609196229364,97.0,1.3824219396528978,-1246.2068352262345,-802.808615510052,-4.3799814496140765,1.0,False,False,
238,pair_trading,XLK_top20_cleaned,XLK-KLAC,kalman_lagged,zscore,kalman_lagged,aggressive_cross,0.0,0.0,2.0,0.5,120.0,,0.07228849230119708,0.20415231288606434,200.46157106128695,-269.21090137871363,172.55020215010302,-441.76110352881665,32.0,0.6409480495270408,-331.0115572324938,457.5976389968703,-788.609196229364,97.0,1.3824219396528978,-1246.2068352262345,-802.808615510052,-4.3799814496140765,1.0,False,False,
239,pair_trading,XLK_top20_cleaned,XLK-IBM,kalman_lagged,zscore,kalman_lagged,aggressive_cross,0.0,0.0,1.0,0.5,120.0,4.0,0.08466075644668838,0.5055174067090747,231.05883169869344,0.8026084798699179,270.18576624770424,-269.3831577678343,94.0,336.6345771620733,-912.469047483841,937.0129379620827,-1849.4819854459238,285.0,1.026898326629185,-2786.494923408006,-2029.6558627801226,-6.754881878728211,1.0,False,False,
240,pair_trading,XLK_top20_cleaned,XLK-IBM,kalman_lagged,zscore,kalman_lagged,aggressive_cross,0.0,0.0,1.0,0.5,120.0,,0.08466075644668838,0.5055174067090747,231.05883169869344,39.579352730371824,257.19973105925436,-217.62037832888248,92.0,6.498330905292653,-903.63182722696,904.1024354919816,-1807.7342627189416,279.0,1.0005207964691392,-2711.836698210923,-1973.139194772713,-6.605194027061489,1.0,False,False,
241,pair_trading,XLK_top20_cleaned,XLK-IBM,kalman_lagged,zscore,kalman_lagged,aggressive_cross,0.0,0.0,1.5,0.5,120.0,4.0,0.08466075644668838,0.5055174067090747,231.05883169869344,-54.55299431009465,184.42442692027785,-238.97742123037247,64.0,3.3806471899957913,-141.7133641883576,612.8099606609145,-754.5233248492721,191.0,4.324291954895667,-1367.3332855101867,-860.105528583749,-3.247349034434981,1.0,False,False,
242,pair_trading,XLK_top20_cleaned,XLK-IBM,kalman_lagged,zscore,kalman_lagged,aggressive_cross,0.0,0.0,1.5,0.5,120.0,,0.08466075644668838,0.5055174067090747,231.05883169869344,-11.648468847316359,160.84397592118097,-172.49244476849736,60.0,13.808164663481683,-114.13063690591287,582.2062322864607,-696.3368691923737,185.0,5.101226524884992,-1278.5431014788342,-812.3283179202039,-2.9997653166278937,1.0,False,False,
243,pair_trading,XLK_top20_cleaned,XLK-IBM,kalman_lagged,zscore,kalman_lagged,aggressive_cross,0.0,0.0,2.0,0.5,120.0,4.0,0.08466075644668838,0.5055174067090747,231.05883169869344,-8.776936546866509,162.59060794123718,-171.36754448810362,42.0,18.524755998069093,-45.20502683625069,312.65523283194216,-357.8602596681928,98.0,6.916381975935883,-670.515492500135,-448.16644725059336,-2.051449694515341,1.0,False,False,
244,pair_trading,XLK_top20_cleaned,XLK-IBM,kalman_lagged,zscore,kalman_lagged,aggressive_cross,0.0,0.0,2.0,0.5,120.0,,0.08466075644668838,0.5055174067090747,231.05883169869344,36.24696803204441,140.05465598781234,-103.80768795576792,38.0,3.8638998954063126,-24.533086344831894,278.92847576483194,-303.4615621096639,92.0,11.36948168054651,-582.3900378744958,-398.3034747007542,-1.7416963624943524,1.0,True,False,
245,pair_trading,XLK_top20_cleaned,XLK-ADI,kalman_lagged,zscore,kalman_lagged,aggressive_cross,0.0,0.0,1.0,0.5,120.0,4.0,0.12372706526092497,0.5528604935240394,198.7868898976452,-232.3077965981202,463.0727323615668,-695.380528959687,92.0,1.9933585490574701,-936.0245872971287,1246.259459484558,-2182.284046781687,287.0,1.331438806627148,-3428.543506266245,-2518.82937451232,-7.948216890108318,1.0,False,False,
246,pair_trading,XLK_top20_cleaned,XLK-ADI,kalman_lagged,zscore,kalman_lagged,aggressive_cross,0.0,0.0,1.0,0.5,120.0,,0.12372706526092497,0.5528604935240394,198.7868898976452,-232.3077965981202,463.0727323615668,-695.380528959687,92.0,1.9933585490574701,-914.4975274998227,1215.1193305073152,-2129.616858007138,283.0,1.3287289401748008,-3344.7361885144533,-2482.320502037472,-7.758110258026841,1.0,False,False,
247,pair_trading,XLK_top20_cleaned,XLK-ADI,kalman_lagged,zscore,kalman_lagged,aggressive_cross,0.0,0.0,1.5,0.5,120.0,4.0,0.12372706526092497,0.5528604935240394,198.7868898976452,-122.53610246659836,271.7784970324999,-394.31459949909834,62.0,2.217946315916021,-511.29059411451254,818.8673450660325,-1330.1579391805449,199.0,1.6015693511518672,-2149.0252842465775,-1523.938076791171,-5.489798316876811,1.0,False,False,
248,pair_trading,XLK_top20_cleaned,XLK-ADI,kalman_lagged,zscore,kalman_lagged,aggressive_cross,0.0,0.0,1.5,0.5,120.0,,0.12372706526092497,0.5528604935240394,198.7868898976452,-122.53610246659836,271.7784970324999,-394.31459949909834,62.0,2.217946315916021,-479.36966758979435,799.552361306598,-1278.9220288963922,195.0,1.6679243918928763,-2078.47439020299,-1482.4121454190145,-5.280100728625468,1.0,False,False,
249,pair_trading,XLK_top20_cleaned,XLK-ADI,kalman_lagged,zscore,kalman_lagged,aggressive_cross,0.0,0.0,2.0,0.5,120.0,4.0,0.12372706526092497,0.5528604935240394,198.7868898976452,-84.30691809390335,226.4929816175586,-310.799899711462,38.0,2.686529014917667,-411.08387538834285,477.89863513730336,-888.9825105256461,106.0,1.1625331562466221,-1366.8811456629496,-947.4959474803024,-4.805411274226296,1.0,True,False,
250,pair_trading,XLK_top20_cleaned,XLK-ADI,kalman_lagged,zscore,kalman_lagged,aggressive_cross,0.0,0.0,2.0,0.5,120.0,,0.12372706526092497,0.5528604935240394,198.7868898976452,-84.30691809390335,226.4929816175586,-310.799899711462,38.0,2.686529014917667,-387.3807364141755,463.4832190321678,-850.8639554463432,102.0,1.1964539675422217,-1314.3471744785109,-911.1671660200976,-4.588286274687816,1.0,False,False,
251,pair_trading,XLK_top20_cleaned,XLK-QCOM,kalman_lagged,zscore,kalman_lagged,aggressive_cross,0.0,0.0,1.0,0.5,120.0,4.0,0.12066888203098605,0.29771453604037246,188.57708809674983,-270.55491344942635,396.11116102513466,-666.6660744745611,98.0,1.4640693675636314,-469.812559435552,1075.3696622745306,-1545.182221710083,303.0,2.288933406902775,-2620.551883984613,-1849.2677002150479,-5.70174309447124,1.0,False,False,
252,pair_trading,XLK_top20_cleaned,XLK-QCOM,kalman_lagged,zscore,kalman_lagged,aggressive_cross,0.0,0.0,1.0,0.5,120.0,,0.12066888203098605,0.29771453604037246,188.57708809674983,-270.55491344942635,396.11116102513466,-666.6660744745611,98.0,1.4640693675636314,-469.812559435552,1075.3696622745306,-1545.182221710083,303.0,2.288933406902775,-2620.551883984613,-1849.2677002150479,-5.70174309447124,1.0,False,False,
253,pair_trading,XLK_top20_cleaned,XLK-QCOM,kalman_lagged,zscore,kalman_lagged,aggressive_cross,0.0,0.0,1.5,0.5,120.0,4.0,0.12066888203098605,0.29771453604037246,188.57708809674983,-310.2371596789433,207.15479111226776,-517.3919507912111,72.0,0.6677304270276554,-237.2341286417169,598.7837562255789,-836.0178848672957,176.0,2.5240202986556493,-1434.8016410928744,-788.4104240265294,-3.656859121036215,1.0,False,False,
254,pair_trading,XLK_top20_cleaned,XLK-QCOM,kalman_lagged,zscore,kalman_lagged,aggressive_cross,0.0,0.0,1.5,0.5,120.0,,0.12066888203098605,0.29771453604037246,188.57708809674983,-310.2371596789433,207.15479111226776,-517.3919507912111,72.0,0.6677304270276554,-237.2341286417169,598.7837562255789,-836.0178848672957,176.0,2.5240202986556493,-1434.8016410928744,-788.4104240265294,-3.656859121036215,1.0,False,False,
255,pair_trading,XLK_top20_cleaned,XLK-QCOM,kalman_lagged,zscore,kalman_lagged,aggressive_cross,0.0,0.0,2.0,0.5,120.0,4.0,0.12066888203098605,0.29771453604037246,188.57708809674983,-223.9178271829072,145.61385225039191,-369.5316794332991,40.0,0.6503003985093483,-496.68647436013083,323.35644843181274,-820.0429227919434,90.0,0.6510272880862823,-1143.399371223756,-812.1569895839116,-4.82478928153864,1.0,True,False,
256,pair_trading,XLK_top20_cleaned,XLK-QCOM,kalman_lagged,zscore,kalman_lagged,aggressive_cross,0.0,0.0,2.0,0.5,120.0,,0.12066888203098605,0.29771453604037246,188.57708809674983,-223.9178271829072,145.61385225039191,-369.5316794332991,40.0,0.6503003985093483,-496.68647436013083,323.35644843181274,-820.0429227919434,90.0,0.6510272880862823,-1143.399371223756,-812.1569895839116,-4.82478928153864,1.0,False,False,
