trial_id,strategy_family,universe,pair_or_basket,method,signal,hedge_method,execution_mode,passive_fill_prob,adverse_selection_bps,entry_z,exit_z,max_hold,z_stop,beta,adf_p,ou_half_life_minutes,validation_gross_bps,validation_cost_bps,validation_net_bps,validation_trades,validation_cost_share,test_gross_bps,test_cost_bps,test_net_bps,test_trades,test_cost_share,test_2x_cost_net_bps,test_latency1_net_bps,sharpe,dsr_pvalue,selected_flag,gate_selected_flag,skip_reason
0,pair_trading,XLK_top20_cleaned,XLK-NVDA,baseline,zscore,ols,aggressive_cross,0.0,0.0,1.0,0.5,120.0,4.0,0.33946775412185337,0.6493571141269858,232.57503150025988,275.7327927848706,332.0562395490753,-56.323446764204746,98.0,1.2042682199507144,-84.92281032033068,1223.0356133804476,-1307.9584237007784,361.0,14.401732688392325,-2530.994037081226,-1363.8315374503252,-5.543664672608712,1.0,False,False,
1,pair_trading,XLK_top20_cleaned,XLK-NVDA,baseline,zscore,ols,aggressive_cross,0.0,0.0,1.0,0.5,120.0,,0.33946775412185337,0.6493571141269858,232.57503150025988,275.7327927848706,332.0562395490753,-56.323446764204746,98.0,1.2042682199507144,-62.105351013107544,965.5780890675164,-1027.683440080624,291.0,15.547421813359172,-1993.2615291481402,-1124.2489685395303,-4.370526234917798,1.0,False,False,
2,pair_trading,XLK_top20_cleaned,XLK-NVDA,baseline,zscore,ols,aggressive_cross,0.0,0.0,1.5,0.5,120.0,4.0,0.33946775412185337,0.6493571141269858,232.57503150025988,-39.04767543368444,192.16414175062678,-231.21181718431126,54.0,4.921269694452965,-418.170413123162,754.1885888830487,-1172.359002006211,243.0,1.803543639661854,-1926.54759088926,-1271.4430244823616,-5.826559657289544,1.0,False,False,
3,pair_trading,XLK_top20_cleaned,XLK-NVDA,baseline,zscore,ols,aggressive_cross,0.0,0.0,1.5,0.5,120.0,,0.33946775412185337,0.6493571141269858,232.57503150025988,-39.04767543368444,192.16414175062678,-231.21181718431126,54.0,4.921269694452965,-395.3529538159388,496.73106457011744,-892.0840183860562,173.0,1.2564243159831718,-1388.8150829561737,-1031.860455571567,-4.454379300316874,1.0,False,False,
4,pair_trading,XLK_top20_cleaned,XLK-NVDA,baseline,zscore,ols,aggressive_cross,0.0,0.0,2.0,0.5,120.0,4.0,0.33946775412185337,0.6493571141269858,232.57503150025988,17.385464595957085,69.78566868186769,-52.400204085910616,36.0,4.014023801129597,-483.8878933767736,548.9619847864988,-1032.8498781632725,175.0,1.1344817514561292,-1581.8118629497712,-936.3364325203951,-6.307446751930165,1.0,True,False,
5,pair_trading,XLK_top20_cleaned,XLK-NVDA,baseline,zscore,ols,aggressive_cross,0.0,0.0,2.0,0.5,120.0,,0.33946775412185337,0.6493571141269858,232.57503150025988,17.385464595957085,69.78566868186769,-52.400204085910616,36.0,4.014023801129597,-461.0704340695504,291.50446047356746,-752.5748945431179,105.0,0.6322341207191683,-1044.0793550166854,-696.7538636096004,-4.628547860607769,1.0,False,False,
6,pair_trading,XLK_top20_cleaned,XLK-AAPL,baseline,zscore,ols,aggressive_cross,0.0,0.0,1.0,0.5,120.0,4.0,0.14843544609461964,0.5529190317205718,308.82376784202256,-333.5397360051045,242.07688583049054,-575.616621835595,92.0,0.725781247925392,-850.8254863686726,834.8254344317816,-1685.6509208004538,297.0,0.9811946724760452,-2520.4763552322356,-1864.061502997182,-5.908668340473035,1.0,False,False,
7,pair_trading,XLK_top20_cleaned,XLK-AAPL,baseline,zscore,ols,aggressive_cross,0.0,0.0,1.0,0.5,120.0,,0.14843544609461964,0.5529190317205718,308.82376784202256,-333.5397360051045,242.07688583049054,-575.616621835595,92.0,0.725781247925392,-850.8254863686726,834.8254344317816,-1685.6509208004538,297.0,0.9811946724760452,-2520.4763552322356,-1864.061502997182,-5.908668340473035,1.0,False,False,
8,pair_trading,XLK_top20_cleaned,XLK-AAPL,baseline,zscore,ols,aggressive_cross,0.0,0.0,1.5,0.5,120.0,4.0,0.14843544609461964,0.5529190317205718,308.82376784202256,-94.00224287137688,184.34866579847554,-278.3509086698523,68.0,1.9611092264119647,-372.6594313720749,554.0070748106639,-926.6665061827389,199.0,1.48663103137064,-1480.673580993403,-1026.2153029002432,-3.8250688532682653,1.0,False,False,
9,pair_trading,XLK_top20_cleaned,XLK-AAPL,baseline,zscore,ols,aggressive_cross,0.0,0.0,1.5,0.5,120.0,,0.14843544609461964,0.5529190317205718,308.82376784202256,-94.00224287137688,184.34866579847554,-278.3509086698523,68.0,1.9611092264119647,-372.6594313720749,554.0070748106639,-926.6665061827389,199.0,1.48663103137064,-1480.673580993403,-1026.2153029002432,-3.8250688532682653,1.0,False,False,
10,pair_trading,XLK_top20_cleaned,XLK-AAPL,baseline,zscore,ols,aggressive_cross,0.0,0.0,2.0,0.5,120.0,4.0,0.14843544609461964,0.5529190317205718,308.82376784202256,200.71097427993314,95.30750945881273,105.40346482112038,36.0,0.47484951832223493,-58.980505918316965,324.429090337483,-383.4095962558,104.0,5.50061558961176,-707.8386865932829,-336.9014699421981,-2.0058769193367296,1.0,True,False,
11,pair_trading,XLK_top20_cleaned,XLK-AAPL,baseline,zscore,ols,aggressive_cross,0.0,0.0,2.0,0.5,120.0,,0.14843544609461964,0.5529190317205718,308.82376784202256,200.71097427993314,95.30750945881273,105.40346482112038,36.0,0.47484951832223493,-58.980505918316965,324.429090337483,-383.4095962558,104.0,5.50061558961176,-707.8386865932829,-336.9014699421981,-2.0058769193367296,1.0,False,False,
12,pair_trading,XLK_top20_cleaned,XLK-MSFT,baseline,zscore,ols,aggressive_cross,0.0,0.0,1.0,0.5,120.0,4.0,0.12458377804166683,0.6757689236279867,288.19562339625617,-253.4720178550764,254.87974007091347,-508.35175792598983,92.0,1.0055537578772973,-685.4690341242155,844.6569273021702,-1530.1259614263856,295.0,1.2322320706745564,-2374.782888728556,-1723.5241147378745,-5.446800102395648,1.0,False,False,
13,pair_trading,XLK_top20_cleaned,XLK-MSFT,baseline,zscore,ols,aggressive_cross,0.0,0.0,1.0,0.5,120.0,,0.12458377804166683,0.6757689236279867,288.19562339625617,-246.72270990085462,227.86844454932893,-474.5911544501835,88.0,0.9235811516536022,-685.4690341242155,844.6569273021702,-1530.1259614263856,295.0,1.2322320706745564,-2374.782888728556,-1723.5241147378745,-5.446800102395648,1.0,False,False,
14,pair_trading,XLK_top20_cleaned,XLK-MSFT,baseline,zscore,ols,aggressive_cross,0.0,0.0,1.5,0.5,120.0,4.0,0.12458377804166683,0.6757689236279867,288.19562339625617,-32.20299595588769,186.6052842062897,-218.8082801621773,66.0,5.7946560146734605,-57.43400536527762,549.5635124311405,-606.9975177964182,199.0,9.568608508773538,-1156.5610302275584,-579.5050610303034,-2.4998948022053833,1.0,False,False,
15,pair_trading,XLK_top20_cleaned,XLK-MSFT,baseline,zscore,ols,aggressive_cross,0.0,0.0,1.5,0.5,120.0,,0.12458377804166683,0.6757689236279867,288.19562339625617,-40.11009190724647,165.23431710576085,-205.34440901300732,62.0,4.119519782898051,-57.43400536527762,549.5635124311405,-606.9975177964182,199.0,9.568608508773538,-1156.5610302275584,-579.5050610303034,-2.4998948022053833,1.0,False,False,
16,pair_trading,XLK_top20_cleaned,XLK-MSFT,baseline,zscore,ols,aggressive_cross,0.0,0.0,2.0,0.5,120.0,4.0,0.12458377804166683,0.6757689236279867,288.19562339625617,72.13431054236831,110.7622928423549,-38.62798229998656,38.0,1.535500817981733,-91.40961857895331,302.2304560238403,-393.6400746027935,109.0,3.3063310045736,-695.8705306266337,-280.67799774719833,-2.0635417857581158,1.0,False,False,
17,pair_trading,XLK_top20_cleaned,XLK-MSFT,baseline,zscore,ols,aggressive_cross,0.0,0.0,2.0,0.5,120.0,,0.12458377804166683,0.6757689236279867,288.19562339625617,57.52315746821122,80.85506615634817,-23.3319086881369,32.0,1.4056089706311892,-91.40961857895331,302.2304560238403,-393.6400746027935,109.0,3.3063310045736,-695.8705306266337,-280.67799774719833,-2.0635417857581158,1.0,True,False,
18,pair_trading,XLK_top20_cleaned,XLK-AVGO,baseline,zscore,ols,aggressive_cross,0.0,0.0,1.0,0.5,120.0,4.0,0.18151283803926516,0.6408554794166519,232.86039211538974,-220.75808804384664,449.41679862317216,-670.1748866670187,110.0,2.035788598304537,103.53294545249483,1027.6386560755031,-924.1057106230086,311.0,9.925716414076387,-1951.7443666985118,-1315.1605059006215,-3.487310433138127,1.0,False,False,
19,pair_trading,XLK_top20_cleaned,XLK-AVGO,baseline,zscore,ols,aggressive_cross,0.0,0.0,1.0,0.5,120.0,,0.18151283803926516,0.6408554794166519,232.86039211538974,-153.47316428535103,362.9969438558198,-516.4701081411706,98.0,2.365214436974163,103.53294545249483,1027.6386560755031,-924.1057106230086,311.0,9.925716414076387,-1951.7443666985118,-1315.1605059006215,-3.487310433138127,1.0,False,False,
20,pair_trading,XLK_top20_cleaned,XLK-AVGO,baseline,zscore,ols,aggressive_cross,0.0,0.0,1.5,0.5,120.0,4.0,0.18151283803926516,0.6408554794166519,232.86039211538974,-152.1350524890708,307.85207315567845,-459.98712564474937,82.0,2.0235446606086667,182.77018730101645,726.8096609451949,-544.0394736441783,199.0,3.9766313734097314,-1270.849134589373,-877.0272660759207,-2.4232553631497686,1.0,False,False,
21,pair_trading,XLK_top20_cleaned,XLK-AVGO,baseline,zscore,ols,aggressive_cross,0.0,0.0,1.5,0.5,120.0,,0.18151283803926516,0.6408554794166519,232.86039211538974,-84.85012873057525,221.43221838832602,-306.2823471189012,70.0,2.6096862986671487,182.77018730101645,726.8096609451949,-544.0394736441783,199.0,3.9766313734097314,-1270.849134589373,-877.0272660759207,-2.4232553631497686,1.0,False,False,
22,pair_trading,XLK_top20_cleaned,XLK-AVGO,baseline,zscore,ols,aggressive_cross,0.0,0.0,2.0,0.5,120.0,4.0,0.18151283803926516,0.6408554794166519,232.86039211538974,-36.18089968815444,190.52666584409212,-226.7075655322465,52.0,5.26594605126611,179.96206612694365,374.7390076763869,-194.7769415494434,119.0,2.082322212349181,-569.5159492258301,-298.752524658822,-1.0612799182244201,1.0,False,False,
23,pair_trading,XLK_top20_cleaned,XLK-AVGO,baseline,zscore,ols,aggressive_cross,0.0,0.0,2.0,0.5,120.0,,0.18151283803926516,0.6408554794166519,232.86039211538974,17.974659648422943,114.02520988335152,-96.05055023492855,40.0,6.343664476192507,179.96206612694365,374.7390076763869,-194.7769415494434,119.0,2.082322212349181,-569.5159492258301,-298.752524658822,-1.0612799182244201,1.0,True,False,
24,pair_trading,XLK_top20_cleaned,XLK-MU,baseline,zscore,ols,aggressive_cross,0.0,0.0,1.0,0.5,120.0,4.0,0.17475494037686523,0.7628966105501287,224.98667281977984,-65.8655937377516,393.9260824426935,-459.79167618044505,94.0,5.980756569372734,-970.6227765971344,1027.1861072364347,-1997.8088838335689,285.0,1.0582752970598974,-3024.9949910700034,-2413.1009015179307,-7.602453064192381,1.0,False,False,
25,pair_trading,XLK_top20_cleaned,XLK-MU,baseline,zscore,ols,aggressive_cross,0.0,0.0,1.0,0.5,120.0,,0.17475494037686523,0.7628966105501287,224.98667281977984,-65.8655937377516,393.9260824426935,-459.79167618044505,94.0,5.980756569372734,-970.6227765971344,1027.1861072364347,-1997.8088838335689,285.0,1.0582752970598974,-3024.9949910700034,-2413.1009015179307,-7.602453064192381,1.0,False,False,
26,pair_trading,XLK_top20_cleaned,XLK-MU,baseline,zscore,ols,aggressive_cross,0.0,0.0,1.5,0.5,120.0,4.0,0.17475494037686523,0.7628966105501287,224.98667281977984,-166.33690242217142,237.97873862729423,-404.3156410494657,62.0,1.430703200323475,-917.7103209372794,780.2740338717991,-1697.9843548090787,205.0,0.8502400115484009,-2478.2583886808775,-1788.9347878195606,-7.164775000852775,1.0,True,False,
27,pair_trading,XLK_top20_cleaned,XLK-MU,baseline,zscore,ols,aggressive_cross,0.0,0.0,1.5,0.5,120.0,,0.17475494037686523,0.7628966105501287,224.98667281977984,-166.33690242217142,237.97873862729423,-404.3156410494657,62.0,1.430703200323475,-917.7103209372794,780.2740338717991,-1697.9843548090787,205.0,0.8502400115484009,-2478.2583886808775,-1788.9347878195606,-7.164775000852775,1.0,False,False,
28,pair_trading,XLK_top20_cleaned,XLK-MU,baseline,zscore,ols,aggressive_cross,0.0,0.0,2.0,0.5,120.0,4.0,0.17475494037686523,0.7628966105501287,224.98667281977984,-260.3900017492591,150.96015398381124,-411.3501557330703,42.0,0.5797463534301803,-211.5752525343815,448.2321558133235,-659.8074083477048,105.0,2.1185471856661717,-1108.0395641610282,-670.1449534053347,-3.72485036038693,1.0,False,False,
29,pair_trading,XLK_top20_cleaned,XLK-MU,baseline,zscore,ols,aggressive_cross,0.0,0.0,2.0,0.5,120.0,,0.17475494037686523,0.7628966105501287,224.98667281977984,-260.3900017492591,150.96015398381124,-411.3501557330703,42.0,0.5797463534301803,-211.5752525343815,448.2321558133235,-659.8074083477048,105.0,2.1185471856661717,-1108.0395641610282,-670.1449534053347,-3.72485036038693,1.0,False,False,
30,pair_trading,XLK_top20_cleaned,XLK-AMD,baseline,zscore,ols,aggressive_cross,0.0,0.0,1.0,0.5,120.0,4.0,0.1773022329256311,0.3884068556400462,234.2837168819512,9.779119841871898,330.57379585424394,-320.7946760123722,100.0,33.804043840306,42.96144802711302,1018.7187305600951,-975.7572825329821,298.0,23.71239279265402,-1994.476013093077,-991.2589005767222,-3.7402809405791815,1.0,False,False,
31,pair_trading,XLK_top20_cleaned,XLK-AMD,baseline,zscore,ols,aggressive_cross,0.0,0.0,1.0,0.5,120.0,,0.1773022329256311,0.3884068556400462,234.2837168819512,34.48499987509796,299.9825719531475,-265.4975720780497,92.0,8.698929187752979,42.96144802711302,1018.7187305600951,-975.7572825329821,298.0,23.71239279265402,-1994.476013093077,-991.2589005767222,-3.7402809405791815,1.0,False,False,
32,pair_trading,XLK_top20_cleaned,XLK-AMD,baseline,zscore,ols,aggressive_cross,0.0,0.0,1.5,0.5,120.0,4.0,0.1773022329256311,0.3884068556400462,234.2837168819512,254.1626199424159,271.48462657181625,-17.322006629400462,74.0,1.0681532423348679,-21.124127757882594,694.4190212102654,-715.543148968148,194.0,32.87326365232472,-1409.9621701784135,-708.8341605361319,-3.197013972650266,1.0,False,False,
33,pair_trading,XLK_top20_cleaned,XLK-AMD,baseline,zscore,ols,aggressive_cross,0.0,0.0,1.5,0.5,120.0,,0.1773022329256311,0.3884068556400462,234.2837168819512,261.663246430312,243.37871596569343,18.284530464618474,66.0,0.9301219001366774,-21.124127757882594,694.4190212102654,-715.543148968148,194.0,32.87326365232472,-1409.9621701784135,-708.8341605361319,-3.197013972650266,1.0,True,False,
34,pair_trading,XLK_top20_cleaned,XLK-AMD,baseline,zscore,ols,aggressive_cross,0.0,0.0,2.0,0.5,120.0,4.0,0.1773022329256311,0.3884068556400462,234.2837168819512,47.14453107916839,139.2953129906609,-92.1507819114925,42.0,2.9546441507021566,145.05159130831828,364.3872704707211,-219.3356791624028,106.0,2.512121840126442,-583.7229496331238,-234.6676456705355,-1.235229658748658,1.0,False,False,
35,pair_trading,XLK_top20_cleaned,XLK-AMD,baseline,zscore,ols,aggressive_cross,0.0,0.0,2.0,0.5,120.0,,0.1773022329256311,0.3884068556400462,234.2837168819512,45.13156228071021,98.48962799787417,-53.35806571716395,32.0,2.182278277567401,145.05159130831828,364.3872704707211,-219.3356791624028,106.0,2.512121840126442,-583.7229496331238,-234.6676456705355,-1.235229658748658,1.0,False,False,
36,pair_trading,XLK_top20_cleaned,XLK-INTC,baseline,zscore,ols,aggressive_cross,0.0,0.0,1.0,0.5,120.0,4.0,0.21251351062731796,0.4848391550693524,296.1457429866254,138.04619217543376,303.7958843330131,-165.7496921575792,106.0,2.2006828261292353,-200.09321819129482,724.4031839997137,-924.4964021910087,262.0,3.620328517617042,-1648.8995861907224,-973.0801938340186,-3.847467290856422,1.0,False,False,
37,pair_trading,XLK_top20_cleaned,XLK-INTC,baseline,zscore,ols,aggressive_cross,0.0,0.0,1.0,0.5,120.0,,0.21251351062731796,0.4848391550693524,296.1457429866254,138.04619217543376,303.7958843330131,-165.7496921575792,106.0,2.2006828261292353,-216.04495308244765,717.6379523692945,-933.6829054517419,258.0,3.321706626932533,-1651.3208578210365,-963.3802836300741,-3.8862275889029894,1.0,False,False,
38,pair_trading,XLK_top20_cleaned,XLK-INTC,baseline,zscore,ols,aggressive_cross,0.0,0.0,1.5,0.5,120.0,4.0,0.21251351062731796,0.4848391550693524,296.1457429866254,83.93462830158786,187.68724674457243,-103.75261844298447,58.0,2.2361122047289963,137.14681100284807,464.8730815652291,-327.7262705623811,186.0,3.3896018300824746,-792.5993521276104,-407.86922989260233,-1.5482125820715817,1.0,False,False,
39,pair_trading,XLK_top20_cleaned,XLK-INTC,baseline,zscore,ols,aggressive_cross,0.0,0.0,1.5,0.5,120.0,,0.21251351062731796,0.4848391550693524,296.1457429866254,83.93462830158786,187.68724674457243,-103.75261844298447,58.0,2.2361122047289963,133.96315227268633,472.9238421698827,-338.9606898971964,182.0,3.530253163998641,-811.8845320670789,-402.31828848538845,-1.600836043946955,1.0,False,False,
40,pair_trading,XLK_top20_cleaned,XLK-INTC,baseline,zscore,ols,aggressive_cross,0.0,0.0,2.0,0.5,120.0,4.0,0.21251351062731796,0.4848391550693524,296.1457429866254,203.72794224559232,122.05205435089687,81.67588789469546,32.0,0.5990933448086574,-61.56274272157946,256.27821722740003,-317.84095994897956,100.0,4.162878486204407,-574.1191771763795,-416.9921766357583,-1.9867568027606044,1.0,True,False,
41,pair_trading,XLK_top20_cleaned,XLK-INTC,baseline,zscore,ols,aggressive_cross,0.0,0.0,2.0,0.5,120.0,,0.21251351062731796,0.4848391550693524,296.1457429866254,203.72794224559232,122.05205435089687,81.67588789469546,32.0,0.5990933448086574,-72.9665942807457,244.7378069393868,-317.7044012201324,96.0,3.3541075796649564,-562.4422081595192,-404.0769542048886,-1.9859605441463395,1.0,False,False,
42,pair_trading,XLK_top20_cleaned,XLK-CSCO,baseline,zscore,ols,aggressive_cross,0.0,0.0,1.0,0.5,120.0,4.0,0.3165553073334239,0.709289868750517,277.34454443160115,-214.23894567745688,260.6020591612528,-474.8410048387096,102.0,1.2164084281557144,5.041845798186145,738.9560013101351,-733.9141555119492,300.0,146.56457791231577,-1472.8701568220843,-1042.8897153192843,-2.939785398310067,1.0,False,False,
43,pair_trading,XLK_top20_cleaned,XLK-CSCO,baseline,zscore,ols,aggressive_cross,0.0,0.0,1.0,0.5,120.0,,0.3165553073334239,0.709289868750517,277.34454443160115,-214.23894567745688,260.6020591612528,-474.8410048387096,102.0,1.2164084281557144,15.404905830801452,739.0656579388898,-723.6607521080884,294.0,47.97599323594433,-1462.7264100469781,-1038.9926909928681,-2.898643280896905,1.0,False,False,
44,pair_trading,XLK_top20_cleaned,XLK-CSCO,baseline,zscore,ols,aggressive_cross,0.0,0.0,1.5,0.5,120.0,4.0,0.3165553073334239,0.709289868750517,277.34454443160115,-38.55197179261437,244.83507686478632,-283.3870486574006,72.0,6.350779622423641,-310.12852298019385,474.8015347879421,-784.9300577681357,184.0,1.5309831234654447,-1259.7315925560779,-808.3506793704526,-3.6447798137134333,1.0,False,False,
45,pair_trading,XLK_top20_cleaned,XLK-CSCO,baseline,zscore,ols,aggressive_cross,0.0,0.0,1.5,0.5,120.0,,0.3165553073334239,0.709289868750517,277.34454443160115,-38.55197179261437,244.83507686478632,-283.3870486574006,72.0,6.350779622423641,-303.9815496725509,473.38828693171644,-777.3698366042672,178.0,1.5572928272839275,-1250.7581235359835,-787.5296264311385,-3.6086472745154747,1.0,False,False,
46,pair_trading,XLK_top20_cleaned,XLK-CSCO,baseline,zscore,ols,aggressive_cross,0.0,0.0,2.0,0.5,120.0,4.0,0.3165553073334239,0.709289868750517,277.34454443160115,-58.643261737452384,95.71527013665846,-154.35853187411087,38.0,1.632161433400116,-316.7097905190005,302.1653010862351,-618.8750916052356,106.0,0.9540762872883376,-921.0403926914707,-654.1244482276192,-3.6521460450501935,1.0,True,False,
47,pair_trading,XLK_top20_cleaned,XLK-CSCO,baseline,zscore,ols,aggressive_cross,0.0,0.0,2.0,0.5,120.0,,0.3165553073334239,0.709289868750517,277.34454443160115,-58.643261737452384,95.71527013665846,-154.35853187411087,38.0,1.632161433400116,-306.05483222641845,290.80186578176557,-596.8566980081839,98.0,0.9501626348007837,-887.6585637899495,-645.8290599698207,-3.5234928764758666,1.0,False,False,
48,pair_trading,XLK_top20_cleaned,XLK-PLTR,baseline,zscore,ols,aggressive_cross,0.0,0.0,1.0,0.5,120.0,4.0,0.21118073685783995,0.0727941290443891,197.0609283486547,227.09389592733984,269.9697475948527,-42.87585166751286,92.0,1.1888023079283085,-961.2583354143117,956.7794004023848,-1918.0377358166966,289.0,0.9953405501446223,-2874.8171362190815,-2082.090225455656,-7.261806882136774,1.0,False,False,
49,pair_trading,XLK_top20_cleaned,XLK-PLTR,baseline,zscore,ols,aggressive_cross,0.0,0.0,1.0,0.5,120.0,,0.21118073685783995,0.0727941290443891,197.0609283486547,227.09389592733984,269.9697475948527,-42.87585166751286,92.0,1.1888023079283085,-961.2583354143117,956.7794004023848,-1918.0377358166966,289.0,0.9953405501446223,-2874.8171362190815,-2082.090225455656,-7.261806882136774,1.0,False,False,
50,pair_trading,XLK_top20_cleaned,XLK-PLTR,baseline,zscore,ols,aggressive_cross,0.0,0.0,1.5,0.5,120.0,4.0,0.21118073685783995,0.0727941290443891,197.0609283486547,212.16302466849106,174.735022197868,37.428002470622985,56.0,0.8235884762243324,-285.6580349871851,663.1527652548798,-948.810800242065,203.0,2.3214917279838794,-1611.963565496945,-1136.0035903843464,-4.114800502435094,1.0,False,False,
51,pair_trading,XLK_top20_cleaned,XLK-PLTR,baseline,zscore,ols,aggressive_cross,0.0,0.0,1.5,0.5,120.0,,0.21118073685783995,0.0727941290443891,197.0609283486547,212.16302466849106,174.735022197868,37.428002470622985,56.0,0.8235884762243324,-285.6580349871851,663.1527652548798,-948.810800242065,203.0,2.3214917279838794,-1611.963565496945,-1136.0035903843464,-4.114800502435094,1.0,False,False,
52,pair_trading,XLK_top20_cleaned,XLK-PLTR,baseline,zscore,ols,aggressive_cross,0.0,0.0,2.0,0.5,120.0,4.0,0.21118073685783995,0.0727941290443891,197.0609283486547,307.95599601055,96.28682993190814,211.6691660786419,34.0,0.3126642480720185,52.0311135513947,241.0217972004213,-188.99068364902658,94.0,4.6322629048165105,-430.0124808494478,-249.38595876667358,-1.123196016621738,1.0,True,False,
53,pair_trading,XLK_top20_cleaned,XLK-PLTR,baseline,zscore,ols,aggressive_cross,0.0,0.0,2.0,0.5,120.0,,0.21118073685783995,0.0727941290443891,197.0609283486547,307.95599601055,96.28682993190814,211.6691660786419,34.0,0.3126642480720185,52.0311135513947,241.0217972004213,-188.99068364902658,94.0,4.6322629048165105,-430.0124808494478,-249.38595876667358,-1.123196016621738,1.0,False,False,
54,pair_trading,XLK_top20_cleaned,XLK-LRCX,baseline,zscore,ols,aggressive_cross,0.0,0.0,1.0,0.5,120.0,4.0,0.19254569136264268,0.8082347807633,248.1116222294593,131.4648236400909,456.3441772177354,-324.8793535776444,98.0,3.4712264815952696,-1701.0543327044231,1310.4581034115863,-3011.5124361160097,309.0,0.7703799215679096,-4321.970539527597,-3195.8449373587814,-10.276569035390706,1.0,False,False,
55,pair_trading,XLK_top20_cleaned,XLK-LRCX,baseline,zscore,ols,aggressive_cross,0.0,0.0,1.0,0.5,120.0,,0.19254569136264268,0.8082347807633,248.1116222294593,180.85233592479742,440.4121568410921,-259.55982091629454,94.0,2.435203032291635,-1701.0543327044231,1310.4581034115863,-3011.5124361160097,309.0,0.7703799215679096,-4321.970539527597,-3195.8449373587814,-10.276569035390706,1.0,False,False,
56,pair_trading,XLK_top20_cleaned,XLK-LRCX,baseline,zscore,ols,aggressive_cross,0.0,0.0,1.5,0.5,120.0,4.0,0.19254569136264268,0.8082347807633,248.1116222294593,38.39486494666658,242.52258533312184,-204.12772038645528,56.0,6.316537007487963,-1195.5455874540955,939.4676091574509,-2135.0131966115464,219.0,0.7858065966000003,-3074.4808057689975,-2245.679335249009,-8.418544048240744,1.0,False,False,
57,pair_trading,XLK_top20_cleaned,XLK-LRCX,baseline,zscore,ols,aggressive_cross,0.0,0.0,1.5,0.5,120.0,,0.19254569136264268,0.8082347807633,248.1116222294593,56.847364840018585,225.13215132211383,-168.28478648209529,52.0,3.960291773518208,-1195.5455874540955,939.4676091574509,-2135.0131966115464,219.0,0.7858065966000003,-3074.4808057689975,-2245.679335249009,-8.418544048240744,1.0,True,False,
58,pair_trading,XLK_top20_cleaned,XLK-LRCX,baseline,zscore,ols,aggressive_cross,0.0,0.0,2.0,0.5,120.0,4.0,0.19254569136264268,0.8082347807633,248.1116222294593,-57.92157413170927,163.90319043833804,-221.82476457004725,42.0,2.8297433710215576,-367.7840503445306,532.8962826505692,-900.6803329950999,108.0,1.4489379899736428,-1433.576615645669,-765.505353366668,-4.607621547352308,1.0,False,False,
59,pair_trading,XLK_top20_cleaned,XLK-LRCX,baseline,zscore,ols,aggressive_cross,0.0,0.0,2.0,0.5,120.0,,0.19254569136264268,0.8082347807633,248.1116222294593,-30.289992291787932,147.99009335323058,-178.28008564501854,38.0,4.8857752067950475,-367.7840503445306,532.8962826505692,-900.6803329950999,108.0,1.4489379899736428,-1433.576615645669,-765.505353366668,-4.607621547352308,1.0,False,False,
60,pair_trading,XLK_top20_cleaned,XLK-AMAT,baseline,zscore,ols,aggressive_cross,0.0,0.0,1.0,0.5,120.0,4.0,0.17272873908982198,0.6303181302230108,228.76422370998648,378.87403498464124,504.98983318034885,-126.11579819570757,104.0,1.3328699951708753,-1552.3222297615782,1193.2388323706232,-2745.561062132201,297.0,0.7686798587905896,-3938.799894502825,-3039.604994099632,-9.591715202452692,1.0,True,False,
61,pair_trading,XLK_top20_cleaned,XLK-AMAT,baseline,zscore,ols,aggressive_cross,0.0,0.0,1.0,0.5,120.0,,0.17272873908982198,0.6303181302230108,228.76422370998648,378.87403498464124,504.98983318034885,-126.11579819570757,104.0,1.3328699951708753,-1552.3222297615782,1193.2388323706232,-2745.561062132201,297.0,0.7686798587905896,-3938.799894502825,-3039.604994099632,-9.591715202452692,1.0,False,False,
62,pair_trading,XLK_top20_cleaned,XLK-AMAT,baseline,zscore,ols,aggressive_cross,0.0,0.0,1.5,0.5,120.0,4.0,0.17272873908982198,0.6303181302230108,228.76422370998648,-10.65569092337966,225.77084419890272,-236.42653512228244,54.0,21.18781839885565,-1196.1042103324096,910.2969974185556,-2106.401207750965,219.0,0.7610515785790728,-3016.6982051695213,-2196.528755854961,-8.350098645038983,1.0,False,False,
63,pair_trading,XLK_top20_cleaned,XLK-AMAT,baseline,zscore,ols,aggressive_cross,0.0,0.0,1.5,0.5,120.0,,0.17272873908982198,0.6303181302230108,228.76422370998648,-10.65569092337966,225.77084419890272,-236.42653512228244,54.0,21.18781839885565,-1196.1042103324096,910.2969974185556,-2106.401207750965,219.0,0.7610515785790728,-3016.6982051695213,-2196.528755854961,-8.350098645038983,1.0,False,False,
64,pair_trading,XLK_top20_cleaned,XLK-AMAT,baseline,zscore,ols,aggressive_cross,0.0,0.0,2.0,0.5,120.0,4.0,0.17272873908982198,0.6303181302230108,228.76422370998648,20.95643016265372,217.20224682760798,-196.2458166649543,40.0,10.364467857444646,-258.009538532275,580.6846598274653,-838.6941983597404,117.0,2.250632527505669,-1419.3788581872059,-992.6879766364311,-4.169447936722841,1.0,False,False,
65,pair_trading,XLK_top20_cleaned,XLK-AMAT,baseline,zscore,ols,aggressive_cross,0.0,0.0,2.0,0.5,120.0,,0.17272873908982198,0.6303181302230108,228.76422370998648,20.95643016265372,217.20224682760798,-196.2458166649543,40.0,10.364467857444646,-258.009538532275,580.6846598274653,-838.6941983597404,117.0,2.250632527505669,-1419.3788581872059,-992.6879766364311,-4.169447936722841,1.0,False,False,
66,pair_trading,XLK_top20_cleaned,XLK-ORCL,baseline,zscore,ols,aggressive_cross,0.0,0.0,1.0,0.5,120.0,4.0,0.13645728829860154,0.684127731146292,246.6667804522139,-412.6933025752187,285.2194819397567,-697.9127845149752,104.0,0.6911173022677579,17.508668018780536,831.4147987878234,-813.9061307690432,321.0,47.485896579683434,-1645.3209295568665,-1365.7274016688734,-2.973785717939055,1.0,False,False,
67,pair_trading,XLK_top20_cleaned,XLK-ORCL,baseline,zscore,ols,aggressive_cross,0.0,0.0,1.0,0.5,120.0,,0.13645728829860154,0.684127731146292,246.6667804522139,-329.8336285493031,226.54972534423553,-556.3833538935385,88.0,0.6868606040586646,17.508668018780536,831.4147987878234,-813.9061307690432,321.0,47.485896579683434,-1645.3209295568665,-1365.7274016688734,-2.973785717939055,1.0,False,False,
68,pair_trading,XLK_top20_cleaned,XLK-ORCL,baseline,zscore,ols,aggressive_cross,0.0,0.0,1.5,0.5,120.0,4.0,0.13645728829860154,0.684127731146292,246.6667804522139,-86.64265308289988,276.9791694146752,-363.62182249757507,76.0,3.196799261786927,-96.83850646081973,497.8544229712107,-594.6929294320305,181.0,5.1410791137370495,-1092.5473524032413,-860.5462884309967,-2.619668513699206,1.0,False,False,
69,pair_trading,XLK_top20_cleaned,XLK-ORCL,baseline,zscore,ols,aggressive_cross,0.0,0.0,1.5,0.5,120.0,,0.13645728829860154,0.684127731146292,246.6667804522139,-65.73510925714704,217.2617573380737,-282.9968665952208,60.0,3.3051098536730876,-96.83850646081973,497.8544229712107,-594.6929294320305,181.0,5.1410791137370495,-1092.5473524032413,-860.5462884309967,-2.619668513699206,1.0,False,False,
70,pair_trading,XLK_top20_cleaned,XLK-ORCL,baseline,zscore,ols,aggressive_cross,0.0,0.0,2.0,0.5,120.0,4.0,0.13645728829860154,0.684127731146292,246.6667804522139,19.667850794301902,132.67960248717122,-113.01175169286935,50.0,6.7460142887402155,-55.63557123494277,274.977687499044,-330.61325873398687,101.0,4.9424798091466355,-605.5909462330309,-355.9540905466702,-1.9088672745259534,1.0,False,False,
71,pair_trading,XLK_top20_cleaned,XLK-ORCL,baseline,zscore,ols,aggressive_cross,0.0,0.0,2.0,0.5,120.0,,0.13645728829860154,0.684127731146292,246.6667804522139,78.4891667587688,81.28279342389884,-2.793626665130106,34.0,1.0355925127058114,-55.63557123494277,274.977687499044,-330.61325873398687,101.0,4.9424798091466355,-605.5909462330309,-355.9540905466702,-1.9088672745259534,1.0,True,False,
72,pair_trading,XLK_top20_cleaned,XLK-TXN,baseline,zscore,ols,aggressive_cross,0.0,0.0,1.0,0.5,120.0,4.0,0.14152022034935785,0.6429229863418991,292.7746824897834,-607.391787627707,300.22491764343727,-907.6167052711443,90.0,0.4942854410594308,-775.8283368241113,983.7549186729727,-1759.583255497084,285.0,1.268005913137974,-2743.338174170057,-1930.905967579034,-6.2448409647324965,1.0,False,False,
73,pair_trading,XLK_top20_cleaned,XLK-TXN,baseline,zscore,ols,aggressive_cross,0.0,0.0,1.0,0.5,120.0,,0.14152022034935785,0.6429229863418991,292.7746824897834,-607.391787627707,300.22491764343727,-907.6167052711443,90.0,0.4942854410594308,-775.8283368241113,983.7549186729727,-1759.583255497084,285.0,1.268005913137974,-2743.338174170057,-1930.905967579034,-6.2448409647324965,1.0,False,False,
74,pair_trading,XLK_top20_cleaned,XLK-TXN,baseline,zscore,ols,aggressive_cross,0.0,0.0,1.5,0.5,120.0,4.0,0.14152022034935785,0.6429229863418991,292.7746824897834,-195.93512725924083,274.3843000990354,-470.3194273582763,66.0,1.4003834020838888,-76.32475750981277,678.9099902958314,-755.234747805644,194.0,8.895016668851476,-1434.1447381014757,-881.6169358175907,-3.117577160510168,1.0,False,False,
75,pair_trading,XLK_top20_cleaned,XLK-TXN,baseline,zscore,ols,aggressive_cross,0.0,0.0,1.5,0.5,120.0,,0.14152022034935785,0.6429229863418991,292.7746824897834,-195.93512725924083,274.3843000990354,-470.3194273582763,66.0,1.4003834020838888,-76.32475750981277,678.9099902958314,-755.234747805644,194.0,8.895016668851476,-1434.1447381014757,-881.6169358175907,-3.117577160510168,1.0,False,False,
76,pair_trading,XLK_top20_cleaned,XLK-TXN,baseline,zscore,ols,aggressive_cross,0.0,0.0,2.0,0.5,120.0,4.0,0.14152022034935785,0.6429229863418991,292.7746824897834,-92.20551816494303,120.13574958936671,-212.3412677543097,36.0,1.3029127971978893,-73.61520552059481,401.88908899573875,-475.50429451633346,106.0,5.459321700641113,-877.3933835120722,-385.7845804861112,-2.478837667324185,1.0,True,False,
77,pair_trading,XLK_top20_cleaned,XLK-TXN,baseline,zscore,ols,aggressive_cross,0.0,0.0,2.0,0.5,120.0,,0.14152022034935785,0.6429229863418991,292.7746824897834,-92.20551816494303,120.13574958936671,-212.3412677543097,36.0,1.3029127971978893,-73.61520552059481,401.88908899573875,-475.50429451633346,106.0,5.459321700641113,-877.3933835120722,-385.7845804861112,-2.478837667324185,1.0,False,False,
78,pair_trading,XLK_top20_cleaned,XLK-KLAC,baseline,zscore,ols,aggressive_cross,0.0,0.0,1.0,0.5,120.0,4.0,0.14045585379464928,0.6251486216955651,246.32134060787214,54.205903780010296,441.20922819444417,-387.00332441443385,92.0,8.139505061755846,-1126.5992909552658,1457.8094828659266,-2584.408773821193,285.0,1.2939911240578015,-4042.218256687119,-2815.623689798805,-9.157014507133484,1.0,False,False,
79,pair_trading,XLK_top20_cleaned,XLK-KLAC,baseline,zscore,ols,aggressive_cross,0.0,0.0,1.0,0.5,120.0,,0.14045585379464928,0.6251486216955651,246.32134060787214,54.205903780010296,441.20922819444417,-387.00332441443385,92.0,8.139505061755846,-1126.5992909552658,1457.8094828659266,-2584.408773821193,285.0,1.2939911240578015,-4042.218256687119,-2815.623689798805,-9.157014507133484,1.0,False,False,
80,pair_trading,XLK_top20_cleaned,XLK-KLAC,baseline,zscore,ols,aggressive_cross,0.0,0.0,1.5,0.5,120.0,4.0,0.14045585379464928,0.6251486216955651,246.32134060787214,22.335066067694783,329.2216022419679,-306.88653617427326,58.0,14.740122157872223,-547.5408538380361,988.7598724514415,-1536.3007262894773,205.0,1.8058193567121825,-2525.060598740919,-1559.128242368966,-6.163914363900887,1.0,False,False,
81,pair_trading,XLK_top20_cleaned,XLK-KLAC,baseline,zscore,ols,aggressive_cross,0.0,0.0,1.5,0.5,120.0,,0.14045585379464928,0.6251486216955651,246.32134060787214,22.335066067694783,329.2216022419679,-306.88653617427326,58.0,14.740122157872223,-547.5408538380361,988.7598724514415,-1536.3007262894773,205.0,1.8058193567121825,-2525.060598740919,-1559.128242368966,-6.163914363900887,1.0,False,False,
82,pair_trading,XLK_top20_cleaned,XLK-KLAC,baseline,zscore,ols,aggressive_cross,0.0,0.0,2.0,0.5,120.0,4.0,0.14045585379464928,0.6251486216955651,246.32134060787214,176.7789941765411,194.04831175172473,-17.269317575183685,36.0,1.0976887421247434,-46.372284059978156,636.4359554360443,-682.8082394960225,115.0,13.724490141845822,-1319.244194932067,-781.4766748698945,-3.3931374333661095,1.0,True,False,
83,pair_trading,XLK_top20_cleaned,XLK-KLAC,baseline,zscore,ols,aggressive_cross,0.0,0.0,2.0,0.5,120.0,,0.14045585379464928,0.6251486216955651,246.32134060787214,176.7789941765411,194.04831175172473,-17.269317575183685,36.0,1.0976887421247434,-46.372284059978156,636.4359554360443,-682.8082394960225,115.0,13.724490141845822,-1319.244194932067,-781.4766748698945,-3.3931374333661095,1.0,False,False,
84,pair_trading,XLK_top20_cleaned,XLK-IBM,baseline,zscore,ols,aggressive_cross,0.0,0.0,1.0,0.5,120.0,4.0,0.14131824567181073,0.5657540609966067,291.25824945190897,-460.66406289390545,254.6888709604824,-715.3529338543877,92.0,0.552873322395759,-789.1885098531501,864.3176702403458,-1653.5061800934961,293.0,1.0951979906564726,-2517.8238503338416,-1876.435149081815,-5.8803535459399425,1.0,False,False,
85,pair_trading,XLK_top20_cleaned,XLK-IBM,baseline,zscore,ols,aggressive_cross,0.0,0.0,1.0,0.5,120.0,,0.14131824567181073,0.5657540609966067,291.25824945190897,-460.66406289390545,254.6888709604824,-715.3529338543877,92.0,0.552873322395759,-789.1885098531501,864.3176702403458,-1653.5061800934961,293.0,1.0951979906564726,-2517.8238503338416,-1876.435149081815,-5.8803535459399425,1.0,False,False,
86,pair_trading,XLK_top20_cleaned,XLK-IBM,baseline,zscore,ols,aggressive_cross,0.0,0.0,1.5,0.5,120.0,4.0,0.14131824567181073,0.5657540609966067,291.25824945190897,-260.10873598631656,211.19340552163482,-471.30214150795143,60.0,0.8119427620175932,334.136995505684,529.7023938356441,-195.5653983299599,201.0,1.5852850805520375,-725.267792165604,-511.80206661549846,-0.8023706408981709,1.0,False,False,
87,pair_trading,XLK_top20_cleaned,XLK-IBM,baseline,zscore,ols,aggressive_cross,0.0,0.0,1.5,0.5,120.0,,0.14131824567181073,0.5657540609966067,291.25824945190897,-260.10873598631656,211.19340552163482,-471.30214150795143,60.0,0.8119427620175932,334.136995505684,529.7023938356441,-195.5653983299599,201.0,1.5852850805520375,-725.267792165604,-511.80206661549846,-0.8023706408981709,1.0,False,False,
88,pair_trading,XLK_top20_cleaned,XLK-IBM,baseline,zscore,ols,aggressive_cross,0.0,0.0,2.0,0.5,120.0,4.0,0.14131824567181073,0.5657540609966067,291.25824945190897,-36.2491951854905,131.83864757428418,-168.0878427597746,44.0,3.637008957016937,18.23155466202625,234.7700120664776,-216.53845740445126,98.0,12.87712520509676,-451.30846947092886,-373.414165788867,-1.2288471616123222,1.0,True,False,
89,pair_trading,XLK_top20_cleaned,XLK-IBM,baseline,zscore,ols,aggressive_cross,0.0,0.0,2.0,0.5,120.0,,0.14131824567181073,0.5657540609966067,291.25824945190897,-36.2491951854905,131.83864757428418,-168.0878427597746,44.0,3.637008957016937,18.23155466202625,234.7700120664776,-216.53845740445126,98.0,12.87712520509676,-451.30846947092886,-373.414165788867,-1.2288471616123222,1.0,False,False,
90,pair_trading,XLK_top20_cleaned,XLK-ADI,baseline,zscore,ols,aggressive_cross,0.0,0.0,1.0,0.5,120.0,4.0,0.15741618612685035,0.5880085493021606,263.79043007205104,-394.6256027184252,371.02817222143557,-765.6537749398609,88.0,0.94020299155849,-1069.854013562994,1183.405491422514,-2253.259504985508,283.0,1.106137357452493,-3436.664996408022,-2578.7851231742097,-8.00901067470501,1.0,False,False,
91,pair_trading,XLK_top20_cleaned,XLK-ADI,baseline,zscore,ols,aggressive_cross,0.0,0.0,1.0,0.5,120.0,,0.15741618612685035,0.5880085493021606,263.79043007205104,-394.6256027184252,371.02817222143557,-765.6537749398609,88.0,0.94020299155849,-1069.854013562994,1183.405491422514,-2253.259504985508,283.0,1.106137357452493,-3436.664996408022,-2578.7851231742097,-8.00901067470501,1.0,False,False,
92,pair_trading,XLK_top20_cleaned,XLK-ADI,baseline,zscore,ols,aggressive_cross,0.0,0.0,1.5,0.5,120.0,4.0,0.15741618612685035,0.5880085493021606,263.79043007205104,-161.3092321453455,275.78038197510557,-437.08961412045113,66.0,1.7096379314893606,-290.76321142596373,853.0051074296105,-1143.7683188555743,201.0,2.9336761801683737,-1996.773426285185,-1402.8463078385453,-4.6691824020861095,1.0,False,False,
93,pair_trading,XLK_top20_cleaned,XLK-ADI,baseline,zscore,ols,aggressive_cross,0.0,0.0,1.5,0.5,120.0,,0.15741618612685035,0.5880085493021606,263.79043007205104,-161.3092321453455,275.78038197510557,-437.08961412045113,66.0,1.7096379314893606,-290.76321142596373,853.0051074296105,-1143.7683188555743,201.0,2.9336761801683737,-1996.773426285185,-1402.8463078385453,-4.6691824020861095,1.0,False,False,
94,pair_trading,XLK_top20_cleaned,XLK-ADI,baseline,zscore,ols,aggressive_cross,0.0,0.0,2.0,0.5,120.0,4.0,0.15741618612685035,0.5880085493021606,263.79043007205104,-26.26645834404471,181.25034654512316,-207.5168048891679,42.0,6.900448631903864,-268.634851926411,431.70102093024894,-700.33587285666,106.0,1.6070179198062797,-1132.036893786909,-719.5178503559582,-3.7136578413543506,1.0,True,False,
95,pair_trading,XLK_top20_cleaned,XLK-ADI,baseline,zscore,ols,aggressive_cross,0.0,0.0,2.0,0.5,120.0,,0.15741618612685035,0.5880085493021606,263.79043007205104,-26.26645834404471,181.25034654512316,-207.5168048891679,42.0,6.900448631903864,-268.634851926411,431.70102093024894,-700.33587285666,106.0,1.6070179198062797,-1132.036893786909,-719.5178503559582,-3.7136578413543506,1.0,False,False,
96,pair_trading,XLK_top20_cleaned,XLK-QCOM,baseline,zscore,ols,aggressive_cross,0.0,0.0,1.0,0.5,120.0,4.0,0.1627429976048066,0.30400970272880773,275.8043489578638,-431.6538970276525,306.75807300468574,-738.4119700323381,94.0,0.7106574853534435,-115.67206911894223,957.6641720069499,-1073.3362411258922,301.0,8.279130643217004,-2031.0004131328421,-1246.5107918363058,-3.978447105323674,1.0,False,False,
97,pair_trading,XLK_top20_cleaned,XLK-QCOM,baseline,zscore,ols,aggressive_cross,0.0,0.0,1.0,0.5,120.0,,0.1627429976048066,0.30400970272880773,275.8043489578638,-431.6538970276525,306.75807300468574,-738.4119700323381,94.0,0.7106574853534435,-115.67206911894223,957.6641720069499,-1073.3362411258922,301.0,8.279130643217004,-2031.0004131328421,-1246.5107918363058,-3.978447105323674,1.0,False,False,
98,pair_trading,XLK_top20_cleaned,XLK-QCOM,baseline,zscore,ols,aggressive_cross,0.0,0.0,1.5,0.5,120.0,4.0,0.1627429976048066,0.30400970272880773,275.8043489578638,-139.2465529794399,241.08969581667068,-380.3362487961104,70.0,1.7313871737440292,-100.4623695002077,568.1308932078721,-668.5932627080801,186.0,5.655161191541451,-1236.7241559159518,-615.9075179089133,-2.9418854491977364,1.0,False,False,
99,pair_trading,XLK_top20_cleaned,XLK-QCOM,baseline,zscore,ols,aggressive_cross,0.0,0.0,1.5,0.5,120.0,,0.1627429976048066,0.30400970272880773,275.8043489578638,-139.2465529794399,241.08969581667068,-380.3362487961104,70.0,1.7313871737440292,-100.4623695002077,568.1308932078721,-668.5932627080801,186.0,5.655161191541451,-1236.7241559159518,-615.9075179089133,-2.9418854491977364,1.0,False,False,
100,pair_trading,XLK_top20_cleaned,XLK-QCOM,baseline,zscore,ols,aggressive_cross,0.0,0.0,2.0,0.5,120.0,4.0,0.1627429976048066,0.30400970272880773,275.8043489578638,-68.95415486191204,105.52862824644735,-174.48278310835937,38.0,1.5304172527062299,-175.6989244011617,312.37286571962943,-488.07179012079115,102.0,1.7778871827718719,-800.4446558404203,-467.00773308956695,-2.741193436803931,1.0,True,False,
101,pair_trading,XLK_top20_cleaned,XLK-QCOM,baseline,zscore,ols,aggressive_cross,0.0,0.0,2.0,0.5,120.0,,0.1627429976048066,0.30400970272880773,275.8043489578638,-68.95415486191204,105.52862824644735,-174.48278310835937,38.0,1.5304172527062299,-175.6989244011617,312.37286571962943,-488.07179012079115,102.0,1.7778871827718719,-800.4446558404203,-467.00773308956695,-2.741193436803931,1.0,False,False,
102,pair_trading,XLK_top20_cleaned,XLK-ANET,baseline,zscore,ols,aggressive_cross,0.0,0.0,1.0,0.5,120.0,4.0,0.15129019540537578,0.49328719762739803,264.71328311763506,-393.7459894487232,353.1089305063884,-746.8549199551117,92.0,0.8967937197297424,-58.45088135176528,1151.037132933364,-1209.4880142851296,299.0,19.69238284032481,-2360.5251472184937,-1579.0046456338885,-4.609022266803943,1.0,False,False,
103,pair_trading,XLK_top20_cleaned,XLK-ANET,baseline,zscore,ols,aggressive_cross,0.0,0.0,1.0,0.5,120.0,,0.15129019540537578,0.49328719762739803,264.71328311763506,-389.99392011316525,325.01207906151313,-715.0059991746782,88.0,0.8333772971824889,-55.98643321765566,1131.930917601224,-1187.91735081888,297.0,20.217950180906737,-2319.848268420104,-1565.0412579145334,-4.528767464097146,1.0,False,False,
104,pair_trading,XLK_top20_cleaned,XLK-ANET,baseline,zscore,ols,aggressive_cross,0.0,0.0,1.5,0.5,120.0,4.0,0.15129019540537578,0.49328719762739803,264.71328311763506,63.59506912873677,281.74552878713706,-218.15045965840025,70.0,4.430304623410252,-470.7064948731367,736.4824119542739,-1207.1889068274106,187.0,1.5646319308867158,-1943.6713187816845,-1263.6563695344335,-5.356087133799679,1.0,False,False,
105,pair_trading,XLK_top20_cleaned,XLK-ANET,baseline,zscore,ols,aggressive_cross,0.0,0.0,1.5,0.5,120.0,,0.15129019540537578,0.49328719762739803,264.71328311763506,67.34713846429472,253.64867734226178,-186.30153887796695,66.0,3.766287375026901,-465.2304326459509,716.7977706538421,-1182.0282032997932,185.0,1.540737063517379,-1898.825973953635,-1247.9947473333623,-5.24746717688385,1.0,False,False,
106,pair_trading,XLK_top20_cleaned,XLK-ANET,baseline,zscore,ols,aggressive_cross,0.0,0.0,2.0,0.5,120.0,4.0,0.15129019540537578,0.49328719762739803,264.71328311763506,107.56754725253693,171.9428078175947,-64.37526056505777,42.0,1.5984635906396902,-34.488168386736675,459.87467193627276,-494.36284032300966,116.0,13.334273562440897,-954.2375122592823,-523.6996957230898,-2.6873638360520054,1.0,False,False,
107,pair_trading,XLK_top20_cleaned,XLK-ANET,baseline,zscore,ols,aggressive_cross,0.0,0.0,2.0,0.5,120.0,,0.15129019540537578,0.49328719762739803,264.71328311763506,88.0664790081282,149.13031656855944,-61.06383756043123,38.0,1.6933834331538937,-22.241112145835203,462.55499374864985,-484.79610589448527,114.0,20.797296048672024,-947.3510996431351,-497.3402876996681,-2.6337016509560867,1.0,True,False,
108,pair_trading,XLK_top20_cleaned,XLK-APH,baseline,zscore,ols,aggressive_cross,0.0,0.0,1.0,0.5,120.0,4.0,0.173491536842839,0.938056136909325,277.5749771108316,190.73661774050572,494.6135515480631,-303.8769338075573,118.0,2.5931756440233062,-1135.0014661196342,1053.8876291101744,-2188.889095229809,275.0,0.928534156623803,-3242.7767243399835,-2364.3979718117407,-7.845071513540789,1.0,False,False,
109,pair_trading,XLK_top20_cleaned,XLK-APH,baseline,zscore,ols,aggressive_cross,0.0,0.0,1.0,0.5,120.0,,0.173491536842839,0.938056136909325,277.5749771108316,235.82074780402945,387.9521519417603,-152.13140413773084,92.0,1.645114586203222,-1135.0014661196342,1053.8876291101744,-2188.889095229809,275.0,0.928534156623803,-3242.7767243399835,-2364.3979718117407,-7.845071513540789,1.0,False,False,
110,pair_trading,XLK_top20_cleaned,XLK-APH,baseline,zscore,ols,aggressive_cross,0.0,0.0,1.5,0.5,120.0,4.0,0.173491536842839,0.938056136909325,277.5749771108316,148.5210825907794,401.75269688752,-253.23161429674067,86.0,2.7050213335333035,-560.9759159214857,839.3001676041431,-1400.276083525629,191.0,1.496142960478916,-2239.576251129772,-1452.5168194135647,-5.764906415776152,1.0,False,False,
111,pair_trading,XLK_top20_cleaned,XLK-APH,baseline,zscore,ols,aggressive_cross,0.0,0.0,1.5,0.5,120.0,,0.173491536842839,0.938056136909325,277.5749771108316,193.60521265430313,295.09129728121724,-101.48608462691426,60.0,1.52419086880747,-560.9759159214857,839.3001676041431,-1400.276083525629,191.0,1.496142960478916,-2239.576251129772,-1452.5168194135647,-5.764906415776152,1.0,False,False,
112,pair_trading,XLK_top20_cleaned,XLK-APH,baseline,zscore,ols,aggressive_cross,0.0,0.0,2.0,0.5,120.0,4.0,0.173491536842839,0.938056136909325,277.5749771108316,82.26363138817801,222.86689747986279,-140.60326609168465,58.0,2.7091789375090807,-737.2563987709502,444.6421251662344,-1181.8985239371843,114.0,0.6031037857487286,-1626.540649103419,-1285.9591557036933,-6.058427209545153,1.0,False,False,
113,pair_trading,XLK_top20_cleaned,XLK-APH,baseline,zscore,ols,aggressive_cross,0.0,0.0,2.0,0.5,120.0,,0.173491536842839,0.938056136909325,277.5749771108316,69.88975899770256,112.54210881108777,-42.652349813385186,32.0,1.6102803962278265,-737.2563987709502,444.6421251662344,-1181.8985239371843,114.0,0.6031037857487286,-1626.540649103419,-1285.9591557036933,-6.058427209545153,1.0,True,False,
114,pair_trading,,XLK-NVDA,coint_filter,,,,,,,,,,,0.6493571141269858,,,,,,,,,,,,,,,,False,False,coint_filter_fail
115,pair_trading,,XLK-AAPL,coint_filter,,,,,,,,,,,0.5529190317205718,,,,,,,,,,,,,,,,False,False,coint_filter_fail
116,pair_trading,,XLK-MSFT,coint_filter,,,,,,,,,,,0.6757689236279867,,,,,,,,,,,,,,,,False,False,coint_filter_fail
117,pair_trading,,XLK-AVGO,coint_filter,,,,,,,,,,,0.6408554794166519,,,,,,,,,,,,,,,,False,False,coint_filter_fail
118,pair_trading,,XLK-MU,coint_filter,,,,,,,,,,,0.7628966105501287,,,,,,,,,,,,,,,,False,False,coint_filter_fail
119,pair_trading,,XLK-AMD,coint_filter,,,,,,,,,,,0.3884068556400462,,,,,,,,,,,,,,,,False,False,coint_filter_fail
120,pair_trading,,XLK-INTC,coint_filter,,,,,,,,,,,0.4848391550693524,,,,,,,,,,,,,,,,False,False,coint_filter_fail
121,pair_trading,,XLK-CSCO,coint_filter,,,,,,,,,,,0.709289868750517,,,,,,,,,,,,,,,,False,False,coint_filter_fail
122,pair_trading,XLK_top20_cleaned,XLK-PLTR,coint_filter,zscore,ols,aggressive_cross,0.0,0.0,1.0,0.5,120.0,4.0,0.21118073685783995,0.0727941290443891,197.0609283486547,227.09389592733984,269.9697475948527,-42.87585166751286,92.0,1.1888023079283085,-961.2583354143117,956.7794004023848,-1918.0377358166966,289.0,0.9953405501446223,-2874.8171362190815,-2082.090225455656,-7.261806882136774,1.0,False,False,
123,pair_trading,XLK_top20_cleaned,XLK-PLTR,coint_filter,zscore,ols,aggressive_cross,0.0,0.0,1.0,0.5,120.0,,0.21118073685783995,0.0727941290443891,197.0609283486547,227.09389592733984,269.9697475948527,-42.87585166751286,92.0,1.1888023079283085,-961.2583354143117,956.7794004023848,-1918.0377358166966,289.0,0.9953405501446223,-2874.8171362190815,-2082.090225455656,-7.261806882136774,1.0,False,False,
124,pair_trading,XLK_top20_cleaned,XLK-PLTR,coint_filter,zscore,ols,aggressive_cross,0.0,0.0,1.5,0.5,120.0,4.0,0.21118073685783995,0.0727941290443891,197.0609283486547,212.16302466849106,174.735022197868,37.428002470622985,56.0,0.8235884762243324,-285.6580349871851,663.1527652548798,-948.810800242065,203.0,2.3214917279838794,-1611.963565496945,-1136.0035903843464,-4.114800502435094,1.0,False,False,
125,pair_trading,XLK_top20_cleaned,XLK-PLTR,coint_filter,zscore,ols,aggressive_cross,0.0,0.0,1.5,0.5,120.0,,0.21118073685783995,0.0727941290443891,197.0609283486547,212.16302466849106,174.735022197868,37.428002470622985,56.0,0.8235884762243324,-285.6580349871851,663.1527652548798,-948.810800242065,203.0,2.3214917279838794,-1611.963565496945,-1136.0035903843464,-4.114800502435094,1.0,False,False,
126,pair_trading,XLK_top20_cleaned,XLK-PLTR,coint_filter,zscore,ols,aggressive_cross,0.0,0.0,2.0,0.5,120.0,4.0,0.21118073685783995,0.0727941290443891,197.0609283486547,307.95599601055,96.28682993190814,211.6691660786419,34.0,0.3126642480720185,52.0311135513947,241.0217972004213,-188.99068364902658,94.0,4.6322629048165105,-430.0124808494478,-249.38595876667358,-1.123196016621738,1.0,True,False,
127,pair_trading,XLK_top20_cleaned,XLK-PLTR,coint_filter,zscore,ols,aggressive_cross,0.0,0.0,2.0,0.5,120.0,,0.21118073685783995,0.0727941290443891,197.0609283486547,307.95599601055,96.28682993190814,211.6691660786419,34.0,0.3126642480720185,52.0311135513947,241.0217972004213,-188.99068364902658,94.0,4.6322629048165105,-430.0124808494478,-249.38595876667358,-1.123196016621738,1.0,False,False,
128,pair_trading,,XLK-LRCX,coint_filter,,,,,,,,,,,0.8082347807633,,,,,,,,,,,,,,,,False,False,coint_filter_fail
129,pair_trading,,XLK-AMAT,coint_filter,,,,,,,,,,,0.6303181302230108,,,,,,,,,,,,,,,,False,False,coint_filter_fail
130,pair_trading,,XLK-ORCL,coint_filter,,,,,,,,,,,0.684127731146292,,,,,,,,,,,,,,,,False,False,coint_filter_fail
131,pair_trading,,XLK-TXN,coint_filter,,,,,,,,,,,0.6429229863418991,,,,,,,,,,,,,,,,False,False,coint_filter_fail
132,pair_trading,,XLK-KLAC,coint_filter,,,,,,,,,,,0.6251486216955651,,,,,,,,,,,,,,,,False,False,coint_filter_fail
133,pair_trading,,XLK-IBM,coint_filter,,,,,,,,,,,0.5657540609966067,,,,,,,,,,,,,,,,False,False,coint_filter_fail
134,pair_trading,,XLK-ADI,coint_filter,,,,,,,,,,,0.5880085493021606,,,,,,,,,,,,,,,,False,False,coint_filter_fail
135,pair_trading,,XLK-QCOM,coint_filter,,,,,,,,,,,0.30400970272880773,,,,,,,,,,,,,,,,False,False,coint_filter_fail
136,pair_trading,,XLK-ANET,coint_filter,,,,,,,,,,,0.49328719762739803,,,,,,,,,,,,,,,,False,False,coint_filter_fail
137,pair_trading,,XLK-APH,coint_filter,,,,,,,,,,,0.938056136909325,,,,,,,,,,,,,,,,False,False,coint_filter_fail
138,pair_trading,XLK_top20_cleaned,XLK-NVDA,kalman_lagged,zscore,kalman_lagged,aggressive_cross,0.0,0.0,1.0,0.5,120.0,4.0,0.2949509084136507,0.6493571141269858,230.23856439950998,149.47164371808398,295.7592401962366,-146.28759647815258,92.0,1.9786979847098172,-299.4166474379622,1251.0917516371273,-1550.5083990750893,361.0,4.1784308332299664,-2801.600150712217,-1635.3832439755727,-6.519816090379503,1.0,False,False,
139,pair_trading,XLK_top20_cleaned,XLK-NVDA,kalman_lagged,zscore,kalman_lagged,aggressive_cross,0.0,0.0,1.0,0.5,120.0,,0.2949509084136507,0.6493571141269858,230.23856439950998,149.47164371808398,295.7592401962366,-146.28759647815258,92.0,1.9786979847098172,-274.6186284737783,987.8324874727465,-1262.4511159465246,289.0,3.597106623693843,-2250.2836034192715,-1387.7979512431423,-5.329533544989061,1.0,False,False,
140,pair_trading,XLK_top20_cleaned,XLK-NVDA,kalman_lagged,zscore,kalman_lagged,aggressive_cross,0.0,0.0,1.5,0.5,120.0,4.0,0.2949509084136507,0.6493571141269858,230.23856439950998,62.61007556571642,198.85906313848366,-136.2489875727672,54.0,3.1761511440719854,-277.9808749286119,910.8169111629537,-1188.7977860915657,267.0,3.2765452349801403,-2099.6146972545193,-1389.311585417329,-5.66764992541943,1.0,False,False,
141,pair_trading,XLK_top20_cleaned,XLK-NVDA,kalman_lagged,zscore,kalman_lagged,aggressive_cross,0.0,0.0,1.5,0.5,120.0,,0.2949509084136507,0.6493571141269858,230.23856439950998,62.61007556571642,198.85906313848366,-136.2489875727672,54.0,3.1761511440719854,-253.182855964428,647.5576469985729,-900.740502963001,195.0,2.5576678347034454,-1548.298149961574,-1141.7262926848985,-4.316287334161399,1.0,False,False,
142,pair_trading,XLK_top20_cleaned,XLK-NVDA,kalman_lagged,zscore,kalman_lagged,aggressive_cross,0.0,0.0,2.0,0.5,120.0,4.0,0.2949509084136507,0.6493571141269858,230.23856439950998,205.8809050294791,129.45116457079052,76.42974045868857,32.0,0.6287672212838535,-287.3862078228189,625.3244154286319,-912.7106232514508,185.0,2.175902664800674,-1538.0350386800828,-1010.8248187935054,-5.433989791444318,1.0,True,False,
143,pair_trading,XLK_top20_cleaned,XLK-NVDA,kalman_lagged,zscore,kalman_lagged,aggressive_cross,0.0,0.0,2.0,0.5,120.0,,0.2949509084136507,0.6493571141269858,230.23856439950998,205.8809050294791,129.45116457079052,76.42974045868857,32.0,0.6287672212838535,-262.588188858635,362.0651512642509,-624.653340122886,113.0,1.3788325851136036,-986.718491387137,-763.239526061075,-3.7488892385589145,1.0,False,False,
144,pair_trading,XLK_top20_cleaned,XLK-AAPL,kalman_lagged,zscore,kalman_lagged,aggressive_cross,0.0,0.0,1.0,0.5,120.0,4.0,0.1285816310195712,0.5529190317205718,275.58319393674566,-226.87780529965102,216.3957972673615,-443.2736025670125,88.0,0.9537988829782389,-176.95687035301748,882.2312808987323,-1059.1881512517498,299.0,4.985572355222706,-1941.419432150482,-1438.1019109891304,-3.773549692703884,1.0,False,False,
145,pair_trading,XLK_top20_cleaned,XLK-AAPL,kalman_lagged,zscore,kalman_lagged,aggressive_cross,0.0,0.0,1.0,0.5,120.0,,0.1285816310195712,0.5529190317205718,275.58319393674566,-226.87780529965102,216.3957972673615,-443.2736025670125,88.0,0.9537988829782389,-176.95687035301748,882.2312808987323,-1059.1881512517498,299.0,4.985572355222706,-1941.419432150482,-1438.1019109891304,-3.773549692703884,1.0,False,False,
146,pair_trading,XLK_top20_cleaned,XLK-AAPL,kalman_lagged,zscore,kalman_lagged,aggressive_cross,0.0,0.0,1.5,0.5,120.0,4.0,0.1285816310195712,0.5529190317205718,275.58319393674566,-296.09777276663823,140.29550031071008,-436.39327307734845,62.0,0.4738147774629846,-281.33309484135253,487.5793821844075,-768.91247702576,191.0,1.7331035385629265,-1256.4918592101676,-844.5702586018269,-3.2259649537180284,1.0,False,False,
147,pair_trading,XLK_top20_cleaned,XLK-AAPL,kalman_lagged,zscore,kalman_lagged,aggressive_cross,0.0,0.0,1.5,0.5,120.0,,0.1285816310195712,0.5529190317205718,275.58319393674566,-296.09777276663823,140.29550031071008,-436.39327307734845,62.0,0.4738147774629846,-281.33309484135253,487.5793821844075,-768.91247702576,191.0,1.7331035385629265,-1256.4918592101676,-844.5702586018269,-3.2259649537180284,1.0,False,False,
148,pair_trading,XLK_top20_cleaned,XLK-AAPL,kalman_lagged,zscore,kalman_lagged,aggressive_cross,0.0,0.0,2.0,0.5,120.0,4.0,0.1285816310195712,0.5529190317205718,275.58319393674566,93.778283619754,111.40267991206467,-17.62439629231072,34.0,1.1879368614142365,107.62794312109129,326.734415655088,-219.1064725339968,102.0,3.0357768269108503,-545.8408881890848,-168.89218719699488,-1.2005197312594629,1.0,True,False,
149,pair_trading,XLK_top20_cleaned,XLK-AAPL,kalman_lagged,zscore,kalman_lagged,aggressive_cross,0.0,0.0,2.0,0.5,120.0,,0.1285816310195712,0.5529190317205718,275.58319393674566,93.778283619754,111.40267991206467,-17.62439629231072,34.0,1.1879368614142365,107.62794312109129,326.734415655088,-219.1064725339968,102.0,3.0357768269108503,-545.8408881890848,-168.89218719699488,-1.2005197312594629,1.0,False,False,
150,pair_trading,XLK_top20_cleaned,XLK-MSFT,kalman_lagged,zscore,kalman_lagged,aggressive_cross,0.0,0.0,1.0,0.5,120.0,4.0,0.1056869624900066,0.6757689236279867,252.32795080655674,-468.8387069868256,311.2194151933953,-780.0581221802208,84.0,0.6638091321289745,-801.878948181447,861.1152049943099,-1662.9941531757563,299.0,1.073871819365258,-2524.109358170066,-1841.0580292878876,-5.9086833059589665,1.0,False,False,
151,pair_trading,XLK_top20_cleaned,XLK-MSFT,kalman_lagged,zscore,kalman_lagged,aggressive_cross,0.0,0.0,1.0,0.5,120.0,,0.1056869624900066,0.6757689236279867,252.32795080655674,-430.7191503266155,298.7991922665227,-729.5183425931382,84.0,0.6937216328550576,-801.878948181447,861.1152049943099,-1662.9941531757563,299.0,1.073871819365258,-2524.109358170066,-1841.0580292878876,-5.9086833059589665,1.0,False,False,
152,pair_trading,XLK_top20_cleaned,XLK-MSFT,kalman_lagged,zscore,kalman_lagged,aggressive_cross,0.0,0.0,1.5,0.5,120.0,4.0,0.1056869624900066,0.6757689236279867,252.32795080655674,-128.35538455263705,178.43248851650574,-306.78787306914285,58.0,1.3901441621510835,-407.9274089085345,514.889843875163,-922.8172527836974,193.0,1.2622094829391854,-1437.7070966588606,-989.8615164644582,-3.824758460439859,1.0,False,False,
153,pair_trading,XLK_top20_cleaned,XLK-MSFT,kalman_lagged,zscore,kalman_lagged,aggressive_cross,0.0,0.0,1.5,0.5,120.0,,0.1056869624900066,0.6757689236279867,252.32795080655674,-97.00830051900668,167.61149770944715,-264.6197982284537,58.0,1.7278057322178044,-407.9274089085345,514.889843875163,-922.8172527836974,193.0,1.2622094829391854,-1437.7070966588606,-989.8615164644582,-3.824758460439859,1.0,True,False,
154,pair_trading,XLK_top20_cleaned,XLK-MSFT,kalman_lagged,zscore,kalman_lagged,aggressive_cross,0.0,0.0,2.0,0.5,120.0,4.0,0.1056869624900066,0.6757689236279867,252.32795080655674,-186.2215211896223,159.142676696027,-345.36419788564933,38.0,0.854587996486067,-93.29500407592286,286.9363276257005,-380.2313317016235,102.0,3.0755808466677768,-667.1676593273241,-200.34780261767617,-2.0871210310974924,1.0,False,False,
155,pair_trading,XLK_top20_cleaned,XLK-MSFT,kalman_lagged,zscore,kalman_lagged,aggressive_cross,0.0,0.0,2.0,0.5,120.0,,0.1056869624900066,0.6757689236279867,252.32795080655674,-175.49750389440393,142.96750986408688,-318.4650137584909,36.0,0.8146412723346185,-93.29500407592286,286.9363276257005,-380.2313317016235,102.0,3.0755808466677768,-667.1676593273241,-200.34780261767617,-2.0871210310974924,1.0,False,False,
156,pair_trading,XLK_top20_cleaned,XLK-AVGO,kalman_lagged,zscore,kalman_lagged,aggressive_cross,0.0,0.0,1.0,0.5,120.0,4.0,0.1521852545834686,0.6408554794166519,218.52336768930257,-176.85080201252705,468.22862467023094,-645.0794266827579,114.0,2.6475911861404193,-49.12064445329239,1073.5461446426477,-1122.66678909594,303.0,21.85529437960563,-2196.212933738588,-1342.394053925945,-4.2076127609256195,1.0,False,False,
157,pair_trading,XLK_top20_cleaned,XLK-AVGO,kalman_lagged,zscore,kalman_lagged,aggressive_cross,0.0,0.0,1.0,0.5,120.0,,0.1521852545834686,0.6408554794166519,218.52336768930257,-111.79684855418589,424.77757642308427,-536.5744249772702,114.0,3.799548752192262,-49.12064445329239,1073.5461446426477,-1122.66678909594,303.0,21.85529437960563,-2196.212933738588,-1342.394053925945,-4.2076127609256195,1.0,False,False,
158,pair_trading,XLK_top20_cleaned,XLK-AVGO,kalman_lagged,zscore,kalman_lagged,aggressive_cross,0.0,0.0,1.5,0.5,120.0,4.0,0.1521852545834686,0.6408554794166519,218.52336768930257,-298.03910729545106,293.8167897603116,-591.8558970557626,66.0,0.9858330083811659,32.53850816200152,677.231591436451,-644.6930832744496,203.0,20.813234216660316,-1321.9246747109007,-750.6988138663405,-2.778766624468459,1.0,False,False,
159,pair_trading,XLK_top20_cleaned,XLK-AVGO,kalman_lagged,zscore,kalman_lagged,aggressive_cross,0.0,0.0,1.5,0.5,120.0,,0.1521852545834686,0.6408554794166519,218.52336768930257,-232.98515383711,250.36574151316498,-483.35089535027487,66.0,1.0745995501851011,32.53850816200152,677.231591436451,-644.6930832744496,203.0,20.813234216660316,-1321.9246747109007,-750.6988138663405,-2.778766624468459,1.0,False,False,
160,pair_trading,XLK_top20_cleaned,XLK-AVGO,kalman_lagged,zscore,kalman_lagged,aggressive_cross,0.0,0.0,2.0,0.5,120.0,4.0,0.1521852545834686,0.6408554794166519,218.52336768930257,-212.56415292113243,116.52764177138774,-329.09179469252007,32.0,0.5481998736382561,7.176930586129878,445.3112516276057,-438.1343210414759,126.0,62.04759071910398,-883.4455726690817,-521.5089507417542,-2.346823622836483,1.0,False,False,
161,pair_trading,XLK_top20_cleaned,XLK-AVGO,kalman_lagged,zscore,kalman_lagged,aggressive_cross,0.0,0.0,2.0,0.5,120.0,,0.1521852545834686,0.6408554794166519,218.52336768930257,-156.3107319732466,84.56972385457027,-240.88045582781672,32.0,0.5410359403156325,7.176930586129878,445.3112516276057,-438.1343210414759,126.0,62.04759071910398,-883.4455726690817,-521.5089507417542,-2.346823622836483,1.0,True,False,
162,pair_trading,XLK_top20_cleaned,XLK-MU,kalman_lagged,zscore,kalman_lagged,aggressive_cross,0.0,0.0,1.0,0.5,120.0,4.0,0.14137708847907163,0.7628966105501287,200.62235419963676,-323.6683130946935,294.46175434653816,-618.1300674412315,82.0,0.9097639232308461,-777.8330546216571,1025.7512218643408,-1803.5842764859974,293.0,1.3187292771496741,-2829.335498350338,-1890.7846085007488,-6.823904584477649,1.0,False,False,
163,pair_trading,XLK_top20_cleaned,XLK-MU,kalman_lagged,zscore,kalman_lagged,aggressive_cross,0.0,0.0,1.0,0.5,120.0,,0.14137708847907163,0.7628966105501287,200.62235419963676,-323.6683130946935,294.46175434653816,-618.1300674412315,82.0,0.9097639232308461,-777.8330546216571,1025.7512218643408,-1803.5842764859974,293.0,1.3187292771496741,-2829.335498350338,-1890.7846085007488,-6.823904584477649,1.0,False,False,
164,pair_trading,XLK_top20_cleaned,XLK-MU,kalman_lagged,zscore,kalman_lagged,aggressive_cross,0.0,0.0,1.5,0.5,120.0,4.0,0.14137708847907163,0.7628966105501287,200.62235419963676,-294.6000874377283,213.31990167266315,-507.9199891103914,60.0,0.7240999265411083,-305.3087998269094,749.6088769518739,-1054.9176767787835,211.0,2.4552481860229847,-1804.526553730657,-1281.4571819236846,-4.48332484538148,1.0,False,False,
165,pair_trading,XLK_top20_cleaned,XLK-MU,kalman_lagged,zscore,kalman_lagged,aggressive_cross,0.0,0.0,1.5,0.5,120.0,,0.14137708847907163,0.7628966105501287,200.62235419963676,-294.6000874377283,213.31990167266315,-507.9199891103914,60.0,0.7240999265411083,-305.3087998269094,749.6088769518739,-1054.9176767787835,211.0,2.4552481860229847,-1804.526553730657,-1281.4571819236846,-4.48332484538148,1.0,False,False,
166,pair_trading,XLK_top20_cleaned,XLK-MU,kalman_lagged,zscore,kalman_lagged,aggressive_cross,0.0,0.0,2.0,0.5,120.0,4.0,0.14137708847907163,0.7628966105501287,200.62235419963676,-254.7892746209843,190.24115712905063,-445.0304317500348,44.0,0.746660774524543,-264.9874281209253,395.42924505145504,-660.4166731723802,109.0,1.4922566246086342,-1055.8459182238353,-721.9107642926689,-3.709373398004916,1.0,True,False,
167,pair_trading,XLK_top20_cleaned,XLK-MU,kalman_lagged,zscore,kalman_lagged,aggressive_cross,0.0,0.0,2.0,0.5,120.0,,0.14137708847907163,0.7628966105501287,200.62235419963676,-254.7892746209843,190.24115712905063,-445.0304317500348,44.0,0.746660774524543,-264.9874281209253,395.42924505145504,-660.4166731723802,109.0,1.4922566246086342,-1055.8459182238353,-721.9107642926689,-3.709373398004916,1.0,False,False,
168,pair_trading,XLK_top20_cleaned,XLK-AMD,kalman_lagged,zscore,kalman_lagged,aggressive_cross,0.0,0.0,1.0,0.5,120.0,4.0,0.14633913494542367,0.3884068556400462,202.62816942650878,115.41561018600723,355.19828647896196,-239.78267629295473,98.0,3.0775584507720737,-277.7400231590983,1008.3748441719972,-1286.1148673310956,266.0,3.6306429037574035,-2294.4897115030926,-1353.9662771201754,-5.069790204826911,1.0,False,False,
169,pair_trading,XLK_top20_cleaned,XLK-AMD,kalman_lagged,zscore,kalman_lagged,aggressive_cross,0.0,0.0,1.0,0.5,120.0,,0.14633913494542367,0.3884068556400462,202.62816942650878,115.41561018600723,355.19828647896196,-239.78267629295473,98.0,3.0775584507720737,-277.7400231590983,1008.3748441719972,-1286.1148673310956,266.0,3.6306429037574035,-2294.4897115030926,-1353.9662771201754,-5.069790204826911,1.0,False,False,
170,pair_trading,XLK_top20_cleaned,XLK-AMD,kalman_lagged,zscore,kalman_lagged,aggressive_cross,0.0,0.0,1.5,0.5,120.0,4.0,0.14633913494542367,0.3884068556400462,202.62816942650878,248.16797342743573,229.615003560533,18.552969866902654,66.0,0.9252402733089666,-317.2522923910327,679.6293805702074,-996.8816729612404,192.0,2.142236311195895,-1676.511053531448,-951.6063028901114,-4.469910218497836,1.0,False,False,
171,pair_trading,XLK_top20_cleaned,XLK-AMD,kalman_lagged,zscore,kalman_lagged,aggressive_cross,0.0,0.0,1.5,0.5,120.0,,0.14633913494542367,0.3884068556400462,202.62816942650878,248.16797342743573,229.615003560533,18.552969866902654,66.0,0.9252402733089666,-317.2522923910327,679.6293805702074,-996.8816729612404,192.0,2.142236311195895,-1676.511053531448,-951.6063028901114,-4.469910218497836,1.0,False,False,
172,pair_trading,XLK_top20_cleaned,XLK-AMD,kalman_lagged,zscore,kalman_lagged,aggressive_cross,0.0,0.0,2.0,0.5,120.0,4.0,0.14633913494542367,0.3884068556400462,202.62816942650878,321.9539956650245,203.31111556785126,118.64288009717319,40.0,0.6314912015547257,51.11381375398188,432.58344548338584,-381.4696317294041,104.0,8.463141638490761,-814.05307721279,-384.99264494895004,-2.1547888434283853,1.0,True,False,
173,pair_trading,XLK_top20_cleaned,XLK-AMD,kalman_lagged,zscore,kalman_lagged,aggressive_cross,0.0,0.0,2.0,0.5,120.0,,0.14633913494542367,0.3884068556400462,202.62816942650878,321.9539956650245,203.31111556785126,118.64288009717319,40.0,0.6314912015547257,51.11381375398188,432.58344548338584,-381.4696317294041,104.0,8.463141638490761,-814.05307721279,-384.99264494895004,-2.1547888434283853,1.0,False,False,
174,pair_trading,XLK_top20_cleaned,XLK-INTC,kalman_lagged,zscore,kalman_lagged,aggressive_cross,0.0,0.0,1.0,0.5,120.0,4.0,0.18472494063432046,0.4848391550693524,231.06664712732245,-88.14369244122717,249.9949713463127,-338.13866378753977,92.0,2.8362207711346494,-347.68654778196213,752.0882717146635,-1099.774819496626,264.0,2.1631215717506156,-1851.863091211289,-1279.5763042385136,-4.529514025837899,1.0,True,False,
175,pair_trading,XLK_top20_cleaned,XLK-INTC,kalman_lagged,zscore,kalman_lagged,aggressive_cross,0.0,0.0,1.0,0.5,120.0,,0.18472494063432046,0.4848391550693524,231.06664712732245,-88.14369244122717,249.9949713463127,-338.13866378753977,92.0,2.8362207711346494,-333.7202591823194,759.6498769938986,-1093.3701361762182,262.0,2.276307344526194,-1853.0200131701165,-1284.3601718179007,-4.502261742843222,1.0,False,False,
176,pair_trading,XLK_top20_cleaned,XLK-INTC,kalman_lagged,zscore,kalman_lagged,aggressive_cross,0.0,0.0,1.5,0.5,120.0,4.0,0.18472494063432046,0.4848391550693524,231.06664712732245,-353.39053424878585,156.42955151402916,-509.82008576281504,54.0,0.44265348489471207,-365.23798889263423,468.49627424555405,-833.7342631381883,182.0,1.282715074809137,-1302.2305373837423,-988.138592596721,-3.8465134813527357,1.0,False,False,
177,pair_trading,XLK_top20_cleaned,XLK-INTC,kalman_lagged,zscore,kalman_lagged,aggressive_cross,0.0,0.0,1.5,0.5,120.0,,0.18472494063432046,0.4848391550693524,231.06664712732245,-353.39053424878585,156.42955151402916,-509.82008576281504,54.0,0.44265348489471207,-360.5138352497035,463.44090398391745,-823.954739233621,180.0,1.2855010229022787,-1287.3956432175382,-972.8288780625224,-3.8009754175698602,1.0,False,False,
178,pair_trading,XLK_top20_cleaned,XLK-INTC,kalman_lagged,zscore,kalman_lagged,aggressive_cross,0.0,0.0,2.0,0.5,120.0,4.0,0.18472494063432046,0.4848391550693524,231.06664712732245,-220.98771147115733,145.5188716631359,-366.5065831342933,38.0,0.6584930478459143,41.90446979968579,308.35386368228626,-266.44939388260053,104.0,7.358495768024211,-574.8032575648868,-305.6090914718768,-1.6277173950888677,1.0,False,False,
179,pair_trading,XLK_top20_cleaned,XLK-INTC,kalman_lagged,zscore,kalman_lagged,aggressive_cross,0.0,0.0,2.0,0.5,120.0,,0.18472494063432046,0.4848391550693524,231.06664712732245,-220.98771147115733,145.5188716631359,-366.5065831342933,38.0,0.6584930478459143,58.052416226270466,302.00122695551363,-243.94881072924315,100.0,5.202216317377828,-545.9500376847568,-286.8363296098198,-1.4906593011086242,1.0,False,False,
180,pair_trading,XLK_top20_cleaned,XLK-CSCO,kalman_lagged,zscore,kalman_lagged,aggressive_cross,0.0,0.0,1.0,0.5,120.0,4.0,0.27599690523512616,0.709289868750517,266.4907085723903,-364.97193454188425,319.9895288035295,-684.9614633454138,118.0,0.8767510554069944,-575.6066145542623,831.4676440034488,-1407.0742585577111,307.0,1.4445067568365593,-2238.54190256116,-1546.0029009434822,-5.643977826711786,1.0,False,False,
181,pair_trading,XLK_top20_cleaned,XLK-CSCO,kalman_lagged,zscore,kalman_lagged,aggressive_cross,0.0,0.0,1.0,0.5,120.0,,0.27599690523512616,0.709289868750517,266.4907085723903,-388.18391736179257,279.53961725371016,-667.7235346155028,100.0,0.7201215834842934,-552.384305180034,722.9447808563991,-1275.329086036433,269.0,1.3087714007746398,-1998.273866892832,-1449.3530829286055,-5.11935390698982,1.0,False,False,
182,pair_trading,XLK_top20_cleaned,XLK-CSCO,kalman_lagged,zscore,kalman_lagged,aggressive_cross,0.0,0.0,1.5,0.5,120.0,4.0,0.27599690523512616,0.709289868750517,266.4907085723903,-268.1813139948033,249.92116661241937,-518.1024806072226,92.0,0.9319111868370599,-798.4118297212607,581.9030745931583,-1380.3149043144192,212.0,0.7288257174199319,-1962.2179789075772,-1369.784587792663,-6.482142519312788,1.0,False,False,
183,pair_trading,XLK_top20_cleaned,XLK-CSCO,kalman_lagged,zscore,kalman_lagged,aggressive_cross,0.0,0.0,1.5,0.5,120.0,,0.27599690523512616,0.709289868750517,266.4907085723903,-288.0578192155258,215.83044060376398,-503.8882598192897,72.0,0.7492608296193444,-775.0340785338404,474.4018612823962,-1249.4359398162367,174.0,0.612104518268202,-1723.8378010986328,-1284.096092646127,-5.873333643635631,1.0,False,False,
184,pair_trading,XLK_top20_cleaned,XLK-CSCO,kalman_lagged,zscore,kalman_lagged,aggressive_cross,0.0,0.0,2.0,0.5,120.0,4.0,0.27599690523512616,0.709289868750517,266.4907085723903,-375.899255022519,131.95584933217424,-507.8551043546933,56.0,0.3510404651487515,236.5526061632609,345.4189733349203,-108.86636717165953,138.0,1.4602205358774334,-454.28534050657987,-171.06653302895396,-0.6337829811515824,1.0,False,False,
185,pair_trading,XLK_top20_cleaned,XLK-CSCO,kalman_lagged,zscore,kalman_lagged,aggressive_cross,0.0,0.0,2.0,0.5,120.0,,0.27599690523512616,0.709289868750517,266.4907085723903,-393.776146844074,86.20403456561253,-479.98018140968657,36.0,0.21891634436594576,252.28964552262204,239.97913201660802,12.31051350601399,102.0,0.9512048404502983,-227.66861851059403,-96.66650843756412,0.0716565364650898,1.0,True,False,
186,pair_trading,XLK_top20_cleaned,XLK-PLTR,kalman_lagged,zscore,kalman_lagged,aggressive_cross,0.0,0.0,1.0,0.5,120.0,4.0,0.1779965403655354,0.0727941290443891,188.05237824943922,93.605874995316,298.8133803584898,-205.20750536317388,90.0,3.1922502767421626,-484.2194338635816,861.3964129950107,-1345.6158468585922,285.0,1.778938127538455,-2207.012259853603,-1552.6202735922466,-5.284632650537811,1.0,True,False,
187,pair_trading,XLK_top20_cleaned,XLK-PLTR,kalman_lagged,zscore,kalman_lagged,aggressive_cross,0.0,0.0,1.0,0.5,120.0,,0.1779965403655354,0.0727941290443891,188.05237824943922,93.605874995316,298.8133803584898,-205.20750536317388,90.0,3.1922502767421626,-471.2465649797852,859.3320235018373,-1330.5785884816223,283.0,1.8235295222548722,-2189.91061198346,-1539.2856063649742,-5.224653587005576,1.0,False,False,
188,pair_trading,XLK_top20_cleaned,XLK-PLTR,kalman_lagged,zscore,kalman_lagged,aggressive_cross,0.0,0.0,1.5,0.5,120.0,4.0,0.1779965403655354,0.0727941290443891,188.05237824943922,-134.8959177471953,163.01532073641079,-297.91123848360616,54.0,1.208452586696606,112.93688567038586,670.6438172452092,-557.7069315748234,204.0,5.938217733420857,-1228.3507488200325,-651.3359142735403,-2.514799759246503,1.0,False,False,
189,pair_trading,XLK_top20_cleaned,XLK-PLTR,kalman_lagged,zscore,kalman_lagged,aggressive_cross,0.0,0.0,1.5,0.5,120.0,,0.1779965403655354,0.0727941290443891,188.05237824943922,-134.8959177471953,163.01532073641079,-297.91123848360616,54.0,1.208452586696606,125.90975455418229,668.5794277520358,-542.6696731978537,202.0,5.309989127683737,-1211.2491009498895,-638.0012470462683,-2.446430169877051,1.0,False,False,
190,pair_trading,XLK_top20_cleaned,XLK-PLTR,kalman_lagged,zscore,kalman_lagged,aggressive_cross,0.0,0.0,2.0,0.5,120.0,4.0,0.1779965403655354,0.0727941290443891,188.05237824943922,-128.26012278760322,133.66764033191794,-261.92776311952116,36.0,1.0421605517505195,-74.678742956558,237.83952662279208,-312.51826957935003,88.0,3.1848357003163232,-550.3577962021423,-304.6460465223638,-1.9848606541979672,1.0,False,False,
191,pair_trading,XLK_top20_cleaned,XLK-PLTR,kalman_lagged,zscore,kalman_lagged,aggressive_cross,0.0,0.0,2.0,0.5,120.0,,0.1779965403655354,0.0727941290443891,188.05237824943922,-128.26012278760322,133.66764033191794,-261.92776311952116,36.0,1.0421605517505195,-61.70587407276164,235.77513712961866,-297.4810112023803,86.0,3.820951257437825,-533.256148331999,-291.3113792950918,-1.8884956325026243,1.0,False,False,
192,pair_trading,XLK_top20_cleaned,XLK-LRCX,kalman_lagged,zscore,kalman_lagged,aggressive_cross,0.0,0.0,1.0,0.5,120.0,4.0,0.1712369847246385,0.8082347807633,218.44810652276124,187.36959289313523,395.9593730225229,-208.5897801293877,88.0,2.113253099975273,-1326.6082308297703,1236.9860416195404,-2563.594272449311,297.0,0.9324426103144462,-3800.5803140688517,-2717.300134078982,-8.876754998504996,1.0,False,False,
193,pair_trading,XLK_top20_cleaned,XLK-LRCX,kalman_lagged,zscore,kalman_lagged,aggressive_cross,0.0,0.0,1.0,0.5,120.0,,0.1712369847246385,0.8082347807633,218.44810652276124,187.36959289313523,395.9593730225229,-208.5897801293877,88.0,2.113253099975273,-1326.6082308297703,1236.9860416195404,-2563.594272449311,297.0,0.9324426103144462,-3800.5803140688517,-2717.300134078982,-8.876754998504996,1.0,False,False,
194,pair_trading,XLK_top20_cleaned,XLK-LRCX,kalman_lagged,zscore,kalman_lagged,aggressive_cross,0.0,0.0,1.5,0.5,120.0,4.0,0.1712369847246385,0.8082347807633,218.44810652276124,147.18099763017315,197.75644641333855,-50.57544878316532,42.0,1.3436275714766392,-643.2692025243066,934.7507401548904,-1578.019942679197,219.0,1.4531252801886936,-2512.7706828340874,-1702.6240099519168,-6.178551844043559,1.0,False,False,
195,pair_trading,XLK_top20_cleaned,XLK-LRCX,kalman_lagged,zscore,kalman_lagged,aggressive_cross,0.0,0.0,1.5,0.5,120.0,,0.1712369847246385,0.8082347807633,218.44810652276124,147.18099763017315,197.75644641333855,-50.57544878316532,42.0,1.3436275714766392,-643.2692025243066,934.7507401548904,-1578.019942679197,219.0,1.4531252801886936,-2512.7706828340874,-1702.6240099519168,-6.178551844043559,1.0,False,False,
196,pair_trading,XLK_top20_cleaned,XLK-LRCX,kalman_lagged,zscore,kalman_lagged,aggressive_cross,0.0,0.0,2.0,0.5,120.0,4.0,0.1712369847246385,0.8082347807633,218.44810652276124,135.04442992515814,103.47096233560522,31.573467589552877,30.0,0.7661994085424257,-207.8101598562074,482.24233887461554,-690.052498730823,106.0,2.3205907700003663,-1172.2948376054385,-599.0910688185156,-3.6338003163716692,1.0,True,False,
197,pair_trading,XLK_top20_cleaned,XLK-LRCX,kalman_lagged,zscore,kalman_lagged,aggressive_cross,0.0,0.0,2.0,0.5,120.0,,0.1712369847246385,0.8082347807633,218.44810652276124,135.04442992515814,103.47096233560522,31.573467589552877,30.0,0.7661994085424257,-207.8101598562074,482.24233887461554,-690.052498730823,106.0,2.3205907700003663,-1172.2948376054385,-599.0910688185156,-3.6338003163716692,1.0,False,False,
198,pair_trading,XLK_top20_cleaned,XLK-AMAT,kalman_lagged,zscore,kalman_lagged,aggressive_cross,0.0,0.0,1.0,0.5,120.0,4.0,0.13874566282389125,0.6303181302230108,200.7963192058487,479.55348111010466,577.0855202149977,-97.5320391048929,108.0,1.2033809427868585,-1262.5390321500063,1175.9411750420445,-2438.480207192051,301.0,0.9314097585082243,-3614.421382234095,-2683.702142844695,-8.514685903322544,1.0,True,False,
199,pair_trading,XLK_top20_cleaned,XLK-AMAT,kalman_lagged,zscore,kalman_lagged,aggressive_cross,0.0,0.0,1.0,0.5,120.0,,0.13874566282389125,0.6303181302230108,200.7963192058487,479.55348111010466,577.0855202149977,-97.5320391048929,108.0,1.2033809427868585,-1262.5390321500063,1175.9411750420445,-2438.480207192051,301.0,0.9314097585082243,-3614.421382234095,-2683.702142844695,-8.514685903322544,1.0,False,False,
200,pair_trading,XLK_top20_cleaned,XLK-AMAT,kalman_lagged,zscore,kalman_lagged,aggressive_cross,0.0,0.0,1.5,0.5,120.0,4.0,0.13874566282389125,0.6303181302230108,200.7963192058487,119.34329182276105,241.33056657684122,-121.98727475408015,60.0,2.0221544327371643,-899.5448688099331,842.8985700212793,-1742.4434388312125,219.0,0.9370278228993792,-2585.3420088524913,-1960.329493815658,-6.892694022234354,1.0,False,False,
201,pair_trading,XLK_top20_cleaned,XLK-AMAT,kalman_lagged,zscore,kalman_lagged,aggressive_cross,0.0,0.0,1.5,0.5,120.0,,0.13874566282389125,0.6303181302230108,200.7963192058487,119.34329182276105,241.33056657684122,-121.98727475408015,60.0,2.0221544327371643,-899.5448688099331,842.8985700212793,-1742.4434388312125,219.0,0.9370278228993792,-2585.3420088524913,-1960.329493815658,-6.892694022234354,1.0,False,False,
202,pair_trading,XLK_top20_cleaned,XLK-AMAT,kalman_lagged,zscore,kalman_lagged,aggressive_cross,0.0,0.0,2.0,0.5,120.0,4.0,0.13874566282389125,0.6303181302230108,200.7963192058487,-82.60447837035362,143.67280446015138,-226.27728283050507,32.0,1.7392858994399862,-373.0037704963164,472.5383803808478,-845.5421508771642,106.0,1.266846122633268,-1318.0805312580123,-872.2598220522334,-4.521880144875698,1.0,False,False,
203,pair_trading,XLK_top20_cleaned,XLK-AMAT,kalman_lagged,zscore,kalman_lagged,aggressive_cross,0.0,0.0,2.0,0.5,120.0,,0.13874566282389125,0.6303181302230108,200.7963192058487,-82.60447837035362,143.67280446015138,-226.27728283050507,32.0,1.7392858994399862,-373.0037704963164,472.5383803808478,-845.5421508771642,106.0,1.266846122633268,-1318.0805312580123,-872.2598220522334,-4.521880144875698,1.0,False,False,
204,pair_trading,XLK_top20_cleaned,XLK-ORCL,kalman_lagged,zscore,kalman_lagged,aggressive_cross,0.0,0.0,1.0,0.5,120.0,4.0,0.11038699065359207,0.684127731146292,242.4894883552882,-322.8431867122139,242.82338336860394,-565.6665700808178,90.0,0.7521403373615547,-569.8541592851255,881.3996509236995,-1451.2538102088247,309.0,1.5467109199122169,-2332.6534611325246,-1903.8000259506966,-5.149946704512107,1.0,False,False,
205,pair_trading,XLK_top20_cleaned,XLK-ORCL,kalman_lagged,zscore,kalman_lagged,aggressive_cross,0.0,0.0,1.0,0.5,120.0,,0.11038699065359207,0.684127731146292,242.4894883552882,-322.8431867122139,242.82338336860394,-565.6665700808178,90.0,0.7521403373615547,-569.8541592851255,881.3996509236995,-1451.2538102088247,309.0,1.5467109199122169,-2332.6534611325246,-1903.8000259506966,-5.149946704512107,1.0,False,False,
206,pair_trading,XLK_top20_cleaned,XLK-ORCL,kalman_lagged,zscore,kalman_lagged,aggressive_cross,0.0,0.0,1.5,0.5,120.0,4.0,0.11038699065359207,0.684127731146292,242.4894883552882,47.93242973432081,229.911469775989,-181.97904004166813,66.0,4.796574491431771,-107.24811465063323,591.1469333517767,-698.3950480024098,209.0,5.511956413196364,-1289.5419813541869,-873.9077512240572,-2.8962441546259927,1.0,True,False,
207,pair_trading,XLK_top20_cleaned,XLK-ORCL,kalman_lagged,zscore,kalman_lagged,aggressive_cross,0.0,0.0,1.5,0.5,120.0,,0.11038699065359207,0.684127731146292,242.4894883552882,47.93242973432081,229.911469775989,-181.97904004166813,66.0,4.796574491431771,-107.24811465063323,591.1469333517767,-698.3950480024098,209.0,5.511956413196364,-1289.5419813541869,-873.9077512240572,-2.8962441546259927,1.0,False,False,
208,pair_trading,XLK_top20_cleaned,XLK-ORCL,kalman_lagged,zscore,kalman_lagged,aggressive_cross,0.0,0.0,2.0,0.5,120.0,4.0,0.11038699065359207,0.684127731146292,242.4894883552882,-89.74684432127624,126.26217828081818,-216.00902260209446,34.0,1.4068703945603274,72.4435355841154,219.36792006058317,-146.9243844764676,97.0,3.0281227757840647,-366.2923045370509,-206.14695684606147,-0.8442918750890733,1.0,False,False,
209,pair_trading,XLK_top20_cleaned,XLK-ORCL,kalman_lagged,zscore,kalman_lagged,aggressive_cross,0.0,0.0,2.0,0.5,120.0,,0.11038699065359207,0.684127731146292,242.4894883552882,-89.74684432127624,126.26217828081818,-216.00902260209446,34.0,1.4068703945603274,72.4435355841154,219.36792006058317,-146.9243844764676,97.0,3.0281227757840647,-366.2923045370509,-206.14695684606147,-0.8442918750890733,1.0,False,False,
210,pair_trading,XLK_top20_cleaned,XLK-TXN,kalman_lagged,zscore,kalman_lagged,aggressive_cross,0.0,0.0,1.0,0.5,120.0,4.0,0.119339742033558,0.6429229863418991,286.45916719510575,-484.129256035824,349.513952105505,-833.643208141329,90.0,0.7219434639571587,-256.87139801986586,1191.1130630840123,-1447.9844611038777,297.0,4.63700152008319,-2639.09752418789,-1761.9332875480986,-5.111080311415542,1.0,False,False,
211,pair_trading,XLK_top20_cleaned,XLK-TXN,kalman_lagged,zscore,kalman_lagged,aggressive_cross,0.0,0.0,1.0,0.5,120.0,,0.119339742033558,0.6429229863418991,286.45916719510575,-484.129256035824,349.513952105505,-833.643208141329,90.0,0.7219434639571587,-242.50744542340246,1193.3660795956307,-1435.8735250190327,297.0,4.920946148734073,-2629.2396046146637,-1780.0181252429059,-5.069549873889038,1.0,False,False,
212,pair_trading,XLK_top20_cleaned,XLK-TXN,kalman_lagged,zscore,kalman_lagged,aggressive_cross,0.0,0.0,1.5,0.5,120.0,4.0,0.119339742033558,0.6429229863418991,286.45916719510575,-145.66995664984503,314.2398351122627,-459.9097917621077,68.0,2.1572041506651813,-216.85870934734507,718.3351864850168,-935.1938958323619,194.0,3.31245716921819,-1653.5290823173784,-1124.881898545194,-3.850486776355028,1.0,False,False,
213,pair_trading,XLK_top20_cleaned,XLK-TXN,kalman_lagged,zscore,kalman_lagged,aggressive_cross,0.0,0.0,1.5,0.5,120.0,,0.119339742033558,0.6429229863418991,286.45916719510575,-145.66995664984503,314.2398351122627,-459.9097917621077,68.0,2.1572041506651813,-199.52498884226372,754.3544021699466,-953.8793910122104,194.0,3.7807515066010517,-1708.2337931821567,-1131.073380556646,-3.925876865058048,1.0,False,False,
214,pair_trading,XLK_top20_cleaned,XLK-TXN,kalman_lagged,zscore,kalman_lagged,aggressive_cross,0.0,0.0,2.0,0.5,120.0,4.0,0.119339742033558,0.6429229863418991,286.45916719510575,-142.003864295031,131.76050838812182,-273.7643726831529,34.0,0.9278656538132841,11.019888559242602,549.6002133651285,-538.5803248058861,118.0,49.87348196948578,-1088.1805381710146,-456.7231218808142,-2.713225443003012,1.0,True,False,
215,pair_trading,XLK_top20_cleaned,XLK-TXN,kalman_lagged,zscore,kalman_lagged,aggressive_cross,0.0,0.0,2.0,0.5,120.0,,0.119339742033558,0.6429229863418991,286.45916719510575,-142.003864295031,131.76050838812182,-273.7643726831529,34.0,0.9278656538132841,13.223776794117349,561.6578827493129,-548.4341059551956,118.0,42.47333356376438,-1110.0919887045084,-450.94654452544,-2.7599856062581267,1.0,False,False,
216,pair_trading,XLK_top20_cleaned,XLK-KLAC,kalman_lagged,zscore,kalman_lagged,aggressive_cross,0.0,0.0,1.0,0.5,120.0,4.0,0.10793500754361905,0.6251486216955651,238.59569708568154,-68.73855284895286,566.1250701717371,-634.8636230206898,98.0,8.235917788606184,-1075.3835756662475,1448.4558070195358,-2523.839382685783,285.0,1.3469201499773267,-3972.2951897053194,-2722.9292851419996,-8.785679104540066,1.0,False,False,
217,pair_trading,XLK_top20_cleaned,XLK-KLAC,kalman_lagged,zscore,kalman_lagged,aggressive_cross,0.0,0.0,1.0,0.5,120.0,,0.10793500754361905,0.6251486216955651,238.59569708568154,-6.849814893539717,546.7818536877857,-553.6316685813252,98.0,79.8243255016239,-1075.3835756662475,1448.4558070195358,-2523.839382685783,285.0,1.3469201499773267,-3972.2951897053194,-2722.9292851419996,-8.785679104540066,1.0,False,False,
218,pair_trading,XLK_top20_cleaned,XLK-KLAC,kalman_lagged,zscore,kalman_lagged,aggressive_cross,0.0,0.0,1.5,0.5,120.0,4.0,0.10793500754361905,0.6251486216955651,238.59569708568154,-124.76946147237717,392.60929916403893,-517.378760636416,60.0,3.1466778371160884,-408.87040738433524,890.3746530042894,-1299.2450603886246,209.0,2.177645133821934,-2189.6197133929136,-1450.1419426667337,-5.194276570119028,1.0,False,False,
219,pair_trading,XLK_top20_cleaned,XLK-KLAC,kalman_lagged,zscore,kalman_lagged,aggressive_cross,0.0,0.0,1.5,0.5,120.0,,0.10793500754361905,0.6251486216955651,238.59569708568154,-62.88072351696407,373.26608268008744,-436.14680619705143,60.0,5.936097134432416,-408.87040738433524,890.3746530042894,-1299.2450603886246,209.0,2.177645133821934,-2189.6197133929136,-1450.1419426667337,-5.194276570119028,1.0,False,False,
220,pair_trading,XLK_top20_cleaned,XLK-KLAC,kalman_lagged,zscore,kalman_lagged,aggressive_cross,0.0,0.0,2.0,0.5,120.0,4.0,0.10793500754361905,0.6251486216955651,238.59569708568154,-153.46049486153757,229.53760456274838,-382.99809942428595,34.0,1.4957439357266034,-29.919319135461862,505.49938650069305,-535.418705636155,105.0,16.89541744623293,-1040.9180921368477,-625.01754878631,-2.800409007179432,1.0,False,False,
221,pair_trading,XLK_top20_cleaned,XLK-KLAC,kalman_lagged,zscore,kalman_lagged,aggressive_cross,0.0,0.0,2.0,0.5,120.0,,0.10793500754361905,0.6251486216955651,238.59569708568154,-149.0833633638425,213.98394412460806,-363.06730748845064,34.0,1.435330806177036,-29.919319135461862,505.49938650069305,-535.418705636155,105.0,16.89541744623293,-1040.9180921368477,-625.01754878631,-2.800409007179432,1.0,True,False,
222,pair_trading,XLK_top20_cleaned,XLK-IBM,kalman_lagged,zscore,kalman_lagged,aggressive_cross,0.0,0.0,1.0,0.5,120.0,4.0,0.11192990967217248,0.5657540609966067,306.90418821016385,-136.61079521850385,266.0802602763695,-402.6910554948733,94.0,1.947724993846819,-831.4840729290157,884.1877138118754,-1715.671786740891,283.0,1.0633850275654757,-2599.859500552766,-2005.2823627098196,-6.243211183356387,1.0,False,False,
223,pair_trading,XLK_top20_cleaned,XLK-IBM,kalman_lagged,zscore,kalman_lagged,aggressive_cross,0.0,0.0,1.0,0.5,120.0,,0.11192990967217248,0.5657540609966067,306.90418821016385,-97.82470750532647,253.30002156234696,-351.12472906767334,92.0,2.5893256215312985,-831.4840729290157,884.1877138118754,-1715.671786740891,283.0,1.0633850275654757,-2599.859500552766,-2005.2823627098196,-6.243211183356387,1.0,False,False,
224,pair_trading,XLK_top20_cleaned,XLK-IBM,kalman_lagged,zscore,kalman_lagged,aggressive_cross,0.0,0.0,1.5,0.5,120.0,4.0,0.11192990967217248,0.5657540609966067,306.90418821016385,-326.70623809373,231.84462457812668,-558.5508626718567,64.0,0.7096424786098265,-52.88334651683623,585.4643517263063,-638.3476982431424,187.0,11.07086427557898,-1223.8120499694487,-771.7154699548878,-2.762018200777552,1.0,False,False,
225,pair_trading,XLK_top20_cleaned,XLK-IBM,kalman_lagged,zscore,kalman_lagged,aggressive_cross,0.0,0.0,1.5,0.5,120.0,,0.11192990967217248,0.5657540609966067,306.90418821016385,-307.48051896944406,207.003931368449,-514.4844503378931,60.0,0.673226167505656,-52.88334651683623,585.4643517263063,-638.3476982431424,187.0,11.07086427557898,-1223.8120499694487,-771.7154699548878,-2.762018200777552,1.0,False,False,
226,pair_trading,XLK_top20_cleaned,XLK-IBM,kalman_lagged,zscore,kalman_lagged,aggressive_cross,0.0,0.0,2.0,0.5,120.0,4.0,0.11192990967217248,0.5657540609966067,306.90418821016385,109.15547696671456,117.8118884032578,-8.656411436543232,44.0,1.0793035006313323,92.12964205416004,300.1618512059408,-208.03220915178056,96.0,3.2580377445674364,-508.19406035772147,-457.0504852171229,-1.1612722660863886,1.0,False,False,
227,pair_trading,XLK_top20_cleaned,XLK-IBM,kalman_lagged,zscore,kalman_lagged,aggressive_cross,0.0,0.0,2.0,0.5,120.0,,0.11192990967217248,0.5657540609966067,306.90418821016385,154.24950679700453,95.47282883205104,58.776677964953464,40.0,0.6189506262583725,92.12964205416004,300.1618512059408,-208.03220915178056,96.0,3.2580377445674364,-508.19406035772147,-457.0504852171229,-1.1612722660863886,1.0,True,False,
228,pair_trading,XLK_top20_cleaned,XLK-ADI,kalman_lagged,zscore,kalman_lagged,aggressive_cross,0.0,0.0,1.0,0.5,120.0,4.0,0.12156505747614121,0.5880085493021606,239.45261702311015,-272.66664406558084,399.85511767575866,-672.5217617413394,92.0,1.4664614333229073,-943.8795314314285,1238.5113898145537,-2182.390921245982,285.0,1.3121498544801633,-3420.9023110605362,-2518.0473598883477,-7.8857239270443,1.0,False,False,
229,pair_trading,XLK_top20_cleaned,XLK-ADI,kalman_lagged,zscore,kalman_lagged,aggressive_cross,0.0,0.0,1.0,0.5,120.0,,0.12156505747614121,0.5880085493021606,239.45261702311015,-272.66664406558084,399.85511767575866,-672.5217617413394,92.0,1.4664614333229073,-928.5125708043565,1218.5605312724972,-2147.073102076854,283.0,1.312379142284392,-3365.6336333493514,-2499.2805931663975,-7.759664204749535,1.0,False,False,
230,pair_trading,XLK_top20_cleaned,XLK-ADI,kalman_lagged,zscore,kalman_lagged,aggressive_cross,0.0,0.0,1.5,0.5,120.0,4.0,0.12156505747614121,0.5880085493021606,239.45261702311015,-86.49477846980751,281.21078741904677,-367.7055658888542,66.0,3.2511880184444686,-504.66092172613594,813.4415320101004,-1318.1024537362362,201.0,1.6118575799921562,-2131.543985746337,-1483.5590577027674,-5.4243196337679676,1.0,True,False,
231,pair_trading,XLK_top20_cleaned,XLK-ADI,kalman_lagged,zscore,kalman_lagged,aggressive_cross,0.0,0.0,1.5,0.5,120.0,,0.12156505747614121,0.5880085493021606,239.45261702311015,-86.49477846980751,281.21078741904677,-367.7055658888542,66.0,3.2511880184444686,-479.584014002104,804.8029776988466,-1284.3869917009504,199.0,1.6781271981582684,-2089.189969399797,-1450.6170688401414,-5.281257206079239,1.0,False,False,
232,pair_trading,XLK_top20_cleaned,XLK-ADI,kalman_lagged,zscore,kalman_lagged,aggressive_cross,0.0,0.0,2.0,0.5,120.0,4.0,0.12156505747614121,0.5880085493021606,239.45261702311015,-191.07207150042694,180.50935619986106,-371.581427700288,38.0,0.9447186853755218,-517.9013550747202,461.3322061502871,-979.2335612250075,104.0,0.8907723481119845,-1440.5657673752944,-1044.5158007719183,-5.119278079553246,1.0,False,False,
233,pair_trading,XLK_top20_cleaned,XLK-ADI,kalman_lagged,zscore,kalman_lagged,aggressive_cross,0.0,0.0,2.0,0.5,120.0,,0.12156505747614121,0.5880085493021606,239.45261702311015,-191.07207150042694,180.50935619986106,-371.581427700288,38.0,0.9447186853755218,-477.4209658034078,451.7641917851259,-929.1851575885338,102.0,0.946259641163629,-1380.9493493736597,-989.8249247712415,-4.845337554772194,1.0,False,False,
234,pair_trading,XLK_top20_cleaned,XLK-QCOM,kalman_lagged,zscore,kalman_lagged,aggressive_cross,0.0,0.0,1.0,0.5,120.0,4.0,0.13587524033205248,0.30400970272880773,250.31059654134094,-338.29263357756616,355.1849440987617,-693.4775776763278,98.0,1.049934018197657,-736.339455077725,1061.973021509967,-1798.3124765876921,297.0,1.4422329459418544,-2860.285498097659,-1958.939592765786,-6.612941765116918,1.0,False,False,
235,pair_trading,XLK_top20_cleaned,XLK-QCOM,kalman_lagged,zscore,kalman_lagged,aggressive_cross,0.0,0.0,1.0,0.5,120.0,,0.13587524033205248,0.30400970272880773,250.31059654134094,-338.29263357756616,355.1849440987617,-693.4775776763278,98.0,1.049934018197657,-744.5270962309085,1049.8433953831031,-1794.3704916140118,295.0,1.4100808428569316,-2844.2138869971145,-1934.5852287756647,-6.597009816240945,1.0,False,False,
236,pair_trading,XLK_top20_cleaned,XLK-QCOM,kalman_lagged,zscore,kalman_lagged,aggressive_cross,0.0,0.0,1.5,0.5,120.0,4.0,0.13587524033205248,0.30400970272880773,250.31059654134094,-332.53473346621263,242.34518289365718,-574.8799163598698,72.0,0.7287815632597092,-146.11577605835572,625.7140605135793,-771.8298365719347,180.0,4.282316922874102,-1397.5438970855141,-906.2863962848577,-3.4056918918387655,1.0,False,False,
237,pair_trading,XLK_top20_cleaned,XLK-QCOM,kalman_lagged,zscore,kalman_lagged,aggressive_cross,0.0,0.0,1.5,0.5,120.0,,0.13587524033205248,0.30400970272880773,250.31059654134094,-332.53473346621263,242.34518289365718,-574.8799163598698,72.0,0.7287815632597092,-155.7900114012863,602.8424715402821,-758.6324829415681,176.0,3.8695835895888804,-1361.4749544818505,-897.1211773016619,-3.3479485681292678,1.0,False,False,
238,pair_trading,XLK_top20_cleaned,XLK-QCOM,kalman_lagged,zscore,kalman_lagged,aggressive_cross,0.0,0.0,2.0,0.5,120.0,4.0,0.13587524033205248,0.30400970272880773,250.31059654134094,-231.93589151070873,130.05192762411914,-361.98781913482793,40.0,0.560723598133213,-610.948015785267,308.76948728983206,-919.7175030750992,90.0,0.5053940422295387,-1228.4869903649314,-1026.4696736268456,-5.357128244737699,1.0,True,False,
239,pair_trading,XLK_top20_cleaned,XLK-QCOM,kalman_lagged,zscore,kalman_lagged,aggressive_cross,0.0,0.0,2.0,0.5,120.0,,0.13587524033205248,0.30400970272880773,250.31059654134094,-231.93589151070873,130.05192762411914,-361.98781913482793,40.0,0.560723598133213,-620.6222511281975,285.8978983165349,-906.5201494447325,86.0,0.46066330653922855,-1192.4180477612674,-1017.3044546436495,-5.281600084462681,1.0,False,False,
240,pair_trading,XLK_top20_cleaned,XLK-ANET,kalman_lagged,zscore,kalman_lagged,aggressive_cross,0.0,0.0,1.0,0.5,120.0,4.0,0.11672879302710293,0.49328719762739803,245.89108775793187,-611.555342978374,388.8892415656299,-1000.4445845440036,96.0,0.6359019605186932,-196.82679559111017,1097.2652643593465,-1294.0920599504566,281.0,5.574775838137485,-2391.357324309803,-1669.7889855677195,-4.864024156008465,1.0,False,False,
241,pair_trading,XLK_top20_cleaned,XLK-ANET,kalman_lagged,zscore,kalman_lagged,aggressive_cross,0.0,0.0,1.0,0.5,120.0,,0.11672879302710293,0.49328719762739803,245.89108775793187,-576.7887896470953,350.32610248554823,-927.1148921326435,94.0,0.6073732859820197,-196.82679559111017,1097.2652643593465,-1294.0920599504566,281.0,5.574775838137485,-2391.357324309803,-1669.7889855677195,-4.864024156008465,1.0,False,False,
242,pair_trading,XLK_top20_cleaned,XLK-ANET,kalman_lagged,zscore,kalman_lagged,aggressive_cross,0.0,0.0,1.5,0.5,120.0,4.0,0.11672879302710293,0.49328719762739803,245.89108775793187,-255.95183730864986,371.6516330523683,-627.6034703610181,70.0,1.452037371406704,-374.47650253946676,830.239126361966,-1204.7156289014326,195.0,2.2170660127719644,-2034.9547552633987,-1275.1241649462993,-5.122739197118658,1.0,False,False,
243,pair_trading,XLK_top20_cleaned,XLK-ANET,kalman_lagged,zscore,kalman_lagged,aggressive_cross,0.0,0.0,1.5,0.5,120.0,,0.11672879302710293,0.49328719762739803,245.89108775793187,-242.73111731998017,330.6468391010723,-573.3779564210524,68.0,1.3621938660019322,-374.47650253946676,830.239126361966,-1204.7156289014326,195.0,2.2170660127719644,-2034.9547552633987,-1275.1241649462993,-5.122739197118658,1.0,False,False,
244,pair_trading,XLK_top20_cleaned,XLK-ANET,kalman_lagged,zscore,kalman_lagged,aggressive_cross,0.0,0.0,2.0,0.5,120.0,4.0,0.11672879302710293,0.49328719762739803,245.89108775793187,-44.7989641570623,252.23396232214006,-297.03292647920233,44.0,5.6303525554256995,-100.40306592700874,478.6865533700459,-579.0896192970546,108.0,4.767648766005239,-1057.7761726671004,-606.4506927596073,-3.0658059575125822,1.0,False,False,
245,pair_trading,XLK_top20_cleaned,XLK-ANET,kalman_lagged,zscore,kalman_lagged,aggressive_cross,0.0,0.0,2.0,0.5,120.0,,0.11672879302710293,0.49328719762739803,245.89108775793187,-33.841272845562195,216.42332615985117,-250.26459900541337,42.0,6.395247813151687,-100.40306592700874,478.6865533700459,-579.0896192970546,108.0,4.767648766005239,-1057.7761726671004,-606.4506927596073,-3.0658059575125822,1.0,True,False,
246,pair_trading,XLK_top20_cleaned,XLK-APH,kalman_lagged,zscore,kalman_lagged,aggressive_cross,0.0,0.0,1.0,0.5,120.0,4.0,0.14361760749983912,0.938056136909325,245.36141518943373,57.87685023432045,494.80265754426074,-436.92580730994035,124.0,8.549232647267443,-1063.0659473712224,1027.6071968455567,-2090.6731442167793,293.0,0.966644825174441,-3118.280341062336,-2275.751668791903,-7.351993832142521,1.0,False,False,
247,pair_trading,XLK_top20_cleaned,XLK-APH,kalman_lagged,zscore,kalman_lagged,aggressive_cross,0.0,0.0,1.0,0.5,120.0,,0.14361760749983912,0.938056136909325,245.36141518943373,91.29586467363222,400.0579679512624,-308.7621032776302,98.0,4.381994402281025,-1063.0659473712224,1027.6071968455567,-2090.6731442167793,293.0,0.966644825174441,-3118.280341062336,-2275.751668791903,-7.351993832142521,1.0,True,False,
248,pair_trading,XLK_top20_cleaned,XLK-APH,kalman_lagged,zscore,kalman_lagged,aggressive_cross,0.0,0.0,1.5,0.5,120.0,4.0,0.14361760749983912,0.938056136909325,245.36141518943373,-276.44408118515315,284.3865729576156,-560.8306541427689,74.0,1.0287309163517335,-488.0085860682506,769.7618477197116,-1257.7704337879622,195.0,1.5773530829067344,-2027.5322815076738,-1406.581196250023,-5.214450545593218,1.0,False,False,
249,pair_trading,XLK_top20_cleaned,XLK-APH,kalman_lagged,zscore,kalman_lagged,aggressive_cross,0.0,0.0,1.5,0.5,120.0,,0.14361760749983912,0.938056136909325,245.36141518943373,-217.008163909109,173.5062407993697,-390.51440470847865,48.0,0.7995378499771119,-488.0085860682506,769.7618477197116,-1257.7704337879622,195.0,1.5773530829067344,-2027.5322815076738,-1406.581196250023,-5.214450545593218,1.0,False,False,
250,pair_trading,XLK_top20_cleaned,XLK-APH,kalman_lagged,zscore,kalman_lagged,aggressive_cross,0.0,0.0,2.0,0.5,120.0,4.0,0.14361760749983912,0.938056136909325,245.36141518943373,-256.40016241763664,271.33807739501174,-527.7382398126484,60.0,1.058260161914576,-258.2792122835233,428.02405783397415,-686.3032701174973,110.0,1.657214508475871,-1114.3273279514717,-723.1126058131496,-3.5522277893803023,1.0,False,False,
251,pair_trading,XLK_top20_cleaned,XLK-APH,kalman_lagged,zscore,kalman_lagged,aggressive_cross,0.0,0.0,2.0,0.5,120.0,,0.14361760749983912,0.938056136909325,245.36141518943373,-204.93258940849566,173.7518743089679,-378.6844637174636,32.0,0.8478489185662184,-258.2792122835233,428.02405783397415,-686.3032701174973,110.0,1.657214508475871,-1114.3273279514717,-723.1126058131496,-3.5522277893803023,1.0,False,False,
252,pair_trading,XLK_top20_cleaned,XLK-NVDA,sscore_ou_gate,sscore,ols,aggressive_cross,0.0,0.0,1.0,0.5,120.0,4.0,0.33946775412185337,0.6493571141269858,232.57503150025988,53.572815057130356,193.06191717721407,-139.48910212008374,76.0,3.603729185620202,-404.43608398319964,533.8080267544597,-938.2441107376593,189.0,1.3198822951134948,-1472.0521374921188,-1075.6689876550167,-4.734204866942848,1.0,False,False,
253,pair_trading,XLK_top20_cleaned,XLK-NVDA,sscore_ou_gate,sscore,ols,aggressive_cross,0.0,0.0,1.0,0.5,120.0,,0.33946775412185337,0.6493571141269858,232.57503150025988,49.042964869155206,198.6314787068281,-149.5885138376729,76.0,4.050152335544342,-383.1067789951105,510.2667738217517,-893.3735528168623,185.0,1.331917892865749,-1403.6403266386137,-1053.6374903964934,-4.5077344966535025,1.0,False,False,
254,pair_trading,XLK_top20_cleaned,XLK-NVDA,sscore_ou_gate,sscore,ols,aggressive_cross,0.0,0.0,1.5,0.5,120.0,4.0,0.33946775412185337,0.6493571141269858,232.57503150025988,-122.07389649801031,123.558447901472,-245.63234439948235,42.0,1.0121610880462546,-281.528677002584,339.3680050583113,-620.8966820608952,111.0,1.205447376343819,-960.2646871192065,-586.5265223869726,-3.774261471493541,1.0,False,False,
255,pair_trading,XLK_top20_cleaned,XLK-NVDA,sscore_ou_gate,sscore,ols,aggressive_cross,0.0,0.0,1.5,0.5,120.0,,0.33946775412185337,0.6493571141269858,232.57503150025988,-122.51298670192052,121.8514887569126,-244.36447545883314,40.0,0.9946005891880069,-259.7161982067695,316.0193812603156,-575.735579467085,107.0,1.2167873372638893,-891.7549607274007,-548.3530165308819,-3.4992851080668617,1.0,False,False,
256,pair_trading,XLK_top20_cleaned,XLK-NVDA,sscore_ou_gate,sscore,ols,aggressive_cross,0.0,0.0,2.0,0.5,120.0,4.0,0.33946775412185337,0.6493571141269858,232.57503150025988,124.11593746258272,48.537246897263735,75.57869056531898,22.0,0.3910637738356227,-415.7973872371526,166.95058390480972,-582.7479711419624,53.0,0.40151907883343296,-749.6985550467721,-536.3494351372822,-5.183949502796553,1.0,True,False,
257,pair_trading,XLK_top20_cleaned,XLK-NVDA,sscore_ou_gate,sscore,ols,aggressive_cross,0.0,0.0,2.0,0.5,120.0,,0.33946775412185337,0.6493571141269858,232.57503150025988,110.82189382374662,48.804622587519525,62.01727123622707,22.0,0.44038791346716544,-402.0529899704821,159.20971514194756,-561.2627051124297,49.0,0.39599186951360915,-720.4724202543773,-528.2362577863371,-4.982173307583099,1.0,False,False,
