trial_id,strategy_family,universe,pair_or_basket,method,signal,hedge_method,execution_mode,passive_fill_prob,adverse_selection_bps,entry_z,exit_z,max_hold,z_stop,beta,adf_p,ou_half_life_minutes,validation_gross_bps,validation_cost_bps,validation_net_bps,validation_trades,validation_cost_share,test_gross_bps,test_cost_bps,test_net_bps,test_trades,test_cost_share,test_2x_cost_net_bps,test_latency1_net_bps,sharpe,dsr_pvalue,selected_flag,gate_selected_flag,skip_reason,gate_reason
10,pair_trading,XLK_top20_cleaned,XLK-AAPL,baseline,zscore,ols,aggressive_cross,0.0,0.0,2.0,0.5,120.0,4.0,0.13016682388301618,0.189768076937123,238.85365754927724,220.50197021209559,76.23550416414997,144.2664660479455,36.0,0.34573615868747504,1.4570540840266704,290.42631554856285,-288.96926146453626,100.0,199.32432071838372,-579.395577013099,-321.87293122938223,-1.5456626526417823,1.0,False,False,,2x_cost_net<0
165,pair_trading,XLK_top20_cleaned,XLK-AAPL,kalman_lagged,zscore,kalman_lagged,aggressive_cross,0.0,0.0,2.0,0.5,120.0,4.0,0.1239698593839163,0.189768076937123,216.37550743972142,53.46922704469976,76.84938812502163,-23.38016108032184,32.0,1.4372638688189057,290.9605051374115,329.00678184279707,-38.04627670538559,106.0,1.130760965951092,-367.05305854818266,-58.14104902355787,-0.20195983521119665,1.0,False,False,,validation_net<=0
406,pair_trading,XLK_top20_cleaned,XLK-AAPL,passive_stress,zscore,ols,passive_entry_stress,0.5,0.5,2.0,0.5,120.0,,0.13016682388301618,0.189768076937123,238.85365754927724,192.8937647390304,49.03504782679853,143.8587169122318,34.0,0.2542075317630872,-108.63555789637252,124.98578669063062,-233.62134458700314,96.0,1.1505053143820054,-358.6071312776338,-289.49367697216553,-1.2855633864018985,1.0,False,False,,2x_cost_net<0
284,pair_trading,XLK_top20_cleaned,XLK-AAPL,sscore_ou_gate,sscore,ols,aggressive_cross,0.0,0.0,1.5,0.5,120.0,,0.13016682388301618,0.189768076937123,238.85365754927724,-245.96122067781354,145.997166142274,-391.9583868200875,62.0,0.5935779865620231,19.649027176544266,360.9044648447434,-341.2554376681992,140.0,18.367548764733133,-702.1599025129426,-620.1729724485739,-1.6238408001959672,1.0,False,False,,validation_net<=0
94,pair_trading,XLK_top20_cleaned,XLK-ADI,baseline,zscore,ols,aggressive_cross,0.0,0.0,2.0,0.5,120.0,4.0,0.14886946846089452,0.5528604935240394,221.44008876002798,-117.9693762391766,182.55826213053362,-300.52763836971013,40.0,1.5475055302522454,-351.8711020341847,433.5267889784814,-785.397891012666,106.0,1.232061361311688,-1218.9246799911477,-745.862200950679,-4.161887927378559,1.0,False,False,,validation_net<=0
249,pair_trading,XLK_top20_cleaned,XLK-ADI,kalman_lagged,zscore,kalman_lagged,aggressive_cross,0.0,0.0,2.0,0.5,120.0,4.0,0.12372706526092497,0.5528604935240394,198.7868898976452,-84.30691809390335,226.4929816175586,-310.799899711462,38.0,2.686529014917667,-411.08387538834285,477.89863513730336,-888.9825105256461,106.0,1.1625331562466221,-1366.8811456629496,-947.4959474803024,-4.805411274226296,1.0,False,False,,validation_net<=0
490,pair_trading,XLK_top20_cleaned,XLK-ADI,passive_stress,zscore,ols,passive_entry_stress,0.5,0.5,2.0,0.5,120.0,,0.14886946846089452,0.5528604935240394,221.44008876002798,-109.68126959467348,99.09433954595652,-208.77560914063,38.0,0.9034754968843732,-398.7846602196997,217.19680372035666,-615.9814639400563,104.0,0.5446468367180872,-833.178267660413,-749.9548861728,-3.303263948278069,1.0,False,False,,validation_net<=0
366,pair_trading,XLK_top20_cleaned,XLK-ADI,sscore_ou_gate,sscore,ols,aggressive_cross,0.0,0.0,1.0,0.5,120.0,,0.14886946846089452,0.5528604935240394,221.44008876002798,119.94547688960078,457.1960980174498,-337.25062112784906,112.0,3.8116993643558432,-30.037059404595528,1020.9896850965922,-1051.0267445011877,243.0,33.990999962545786,-2072.01642959778,-1252.934856053703,-4.2624003779694135,1.0,False,False,,validation_net<=0
60,pair_trading,XLK_top20_cleaned,XLK-AMAT,baseline,zscore,ols,aggressive_cross,0.0,0.0,1.0,0.5,120.0,4.0,0.14214655234172935,0.7005304277500676,198.62914056620676,399.8289768867106,413.2198669486203,-13.39089006190973,98.0,1.0334915447253936,-1359.4921880986683,1104.4415464073281,-2463.9337345059967,291.0,0.8123927125700929,-3568.375280913325,-2890.78124639464,-8.79908590600943,1.0,False,False,,validation_net<=0
217,pair_trading,XLK_top20_cleaned,XLK-AMAT,kalman_lagged,zscore,kalman_lagged,aggressive_cross,0.0,0.0,1.5,0.5,120.0,4.0,0.12605375310077455,0.7005304277500676,174.38330731912515,120.06088583607257,266.06561401663186,-146.00472818055923,58.0,2.2160890465185275,-678.6828146448634,909.848032606353,-1588.5308472512165,221.0,1.3406086215435589,-2498.3788798575692,-1727.8406427029424,-6.376144075631805,1.0,False,False,,validation_net<=0
455,pair_trading,XLK_top20_cleaned,XLK-AMAT,passive_stress,zscore,ols,passive_entry_stress,0.5,0.5,1.0,0.5,120.0,4.0,0.14214655234172935,0.7005304277500676,198.62914056620676,279.5912127313285,168.61802317704712,110.97318955428148,92.0,0.60308770626164,-1434.4984907750202,577.2237740860785,-2011.7222648610987,283.0,0.40238716025014454,-2588.9460389471774,-2625.1615116914327,-7.259922657766915,1.0,False,False,,2x_cost_net<0
340,pair_trading,XLK_top20_cleaned,XLK-AMAT,sscore_ou_gate,sscore,ols,aggressive_cross,0.0,0.0,2.0,0.5,120.0,,0.14214655234172935,0.7005304277500676,198.62914056620676,140.15094733236165,176.48585130789448,-36.33490397553281,36.0,1.2592555003525323,-195.76119333231202,342.8508686701157,-538.6120620024275,82.0,1.7513730011244537,-881.4629306725433,-574.9384188465758,-3.3680674635456906,1.0,False,False,,validation_net<=0
33,pair_trading,XLK_top20_cleaned,XLK-AMD,baseline,zscore,ols,aggressive_cross,0.0,0.0,1.5,0.5,120.0,,0.14474834488538607,0.13917399440730255,195.91361381431693,181.67671848260582,188.58570940523435,-6.908990922628553,60.0,1.038029038504953,58.745470873780185,636.3657289384214,-577.6202580646412,198.0,10.832592189203984,-1213.9859870030627,-653.4152317511124,-2.564914080371244,1.0,False,False,,validation_net<=0
189,pair_trading,XLK_top20_cleaned,XLK-AMD,kalman_lagged,zscore,kalman_lagged,aggressive_cross,0.0,0.0,2.0,0.5,120.0,4.0,0.12060327439939197,0.13917399440730255,184.30642295223055,332.6288874392572,219.98076559068866,112.64812184856848,42.0,0.6613399313697921,63.18525768000554,438.70514933963614,-375.51989165963056,108.0,6.943156765481717,-814.2250409992668,-437.9049472450104,-2.100945664472818,1.0,False,False,,2x_cost_net<0
428,pair_trading,XLK_top20_cleaned,XLK-AMD,passive_stress,zscore,ols,passive_entry_stress,0.5,0.5,1.5,0.5,120.0,,0.14474834488538607,0.13917399440730255,195.91361381431693,193.33767334847292,96.64184974440188,96.695823604071,54.0,0.49986041556533095,-184.01803219294715,360.9384849761186,-544.9565171690658,186.0,1.9614299787624416,-905.8950021451843,-729.8822271900851,-2.5286706417244376,1.0,False,False,,2x_cost_net<0
310,pair_trading,XLK_top20_cleaned,XLK-AMD,sscore_ou_gate,sscore,ols,aggressive_cross,0.0,0.0,2.0,0.5,120.0,,0.14474834488538607,0.13917399440730255,195.91361381431693,296.6240483767683,107.78333126564175,188.84071711112657,36.0,0.36336680001324995,-131.53844702141106,162.64266311000281,-294.18111013141385,68.0,1.2364648267706004,-456.82377324141663,-323.5682425087814,-1.988930923797675,1.0,False,False,,2x_cost_net<0
107,pair_trading,XLK_top20_cleaned,XLK-ANET,baseline,zscore,ols,aggressive_cross,0.0,0.0,2.0,0.5,120.0,,0.12375269120668982,0.015941952505673547,205.41576085320528,26.545450826449684,133.27473152122872,-106.72928069477895,36.0,5.020624151104444,-25.54143221415531,360.2868563789406,-385.828288593096,108.0,14.105977039896226,-746.1151449720365,-387.8619535321888,-2.145689750982924,1.0,False,False,,validation_net<=0
152,pair_trading,XLK_top20_cleaned,XLK-ANET,coint_filter,zscore,ols,aggressive_cross,0.0,0.0,2.0,0.5,120.0,,0.12375269120668982,0.015941952505673547,205.41576085320528,26.545450826449684,133.27473152122872,-106.72928069477895,36.0,5.020624151104444,-25.54143221415531,360.2868563789406,-385.828288593096,108.0,14.105977039896226,-746.1151449720365,-387.8619535321888,-2.145689750982924,1.0,False,False,,validation_net<=0
547,pair_trading,XLK_top20_cleaned,XLK-ANET,combined,sscore,kalman_lagged,passive_entry_stress,0.5,0.5,2.0,0.5,120.0,,0.1066938770430432,0.015941952505673547,192.22768235270965,62.55738290332949,87.77008669968698,-25.212703796357594,44.0,1.4030332252760465,67.76817335456502,163.0677310235867,-95.29955766902181,68.0,2.406258320855303,-258.36728869260844,-321.890338320909,-0.626662631761672,1.0,False,False,,validation_net<=0
262,pair_trading,XLK_top20_cleaned,XLK-ANET,kalman_lagged,zscore,kalman_lagged,aggressive_cross,0.0,0.0,2.0,0.5,120.0,,0.1066938770430432,0.015941952505673547,192.22768235270965,22.0215283368933,157.974407950602,-135.95287961370872,40.0,7.173635069003949,-14.845574823352266,422.3607841417446,-437.2063589650969,110.0,28.45028159349991,-859.5671431068416,-499.40179206017683,-2.338480951299957,1.0,False,False,,validation_net<=0
502,pair_trading,XLK_top20_cleaned,XLK-ANET,passive_stress,zscore,ols,passive_entry_stress,0.5,0.5,2.0,0.5,120.0,,0.12375269120668982,0.015941952505673547,205.41576085320528,26.68193530916811,64.77268989169939,-38.09075458253134,32.0,2.427585898142966,-63.89317872242361,137.25926516753717,-201.15244388996058,104.0,2.1482616440769657,-338.41170905749783,-426.02374118864475,-1.1564597924892464,1.0,False,False,,validation_net<=0
382,pair_trading,XLK_top20_cleaned,XLK-ANET,sscore_ou_gate,sscore,ols,aggressive_cross,0.0,0.0,2.0,0.5,120.0,,0.12375269120668982,0.015941952505673547,205.41576085320528,54.516708582456296,115.67830345951813,-61.1615948770618,40.0,2.1218871510659008,-77.94418968893375,264.23211644272146,-342.1763061316552,66.0,3.390016850482907,-606.4084225743766,-330.4218022038338,-2.2542800989442076,1.0,False,False,,validation_net<=0
117,pair_trading,XLK_top20_cleaned,XLK-APH,baseline,zscore,ols,aggressive_cross,0.0,0.0,1.5,0.5,120.0,,0.16594094121884617,0.8365306258662117,228.08139773052142,219.92099014393625,246.54951828326588,-26.62852813932956,58.0,1.1210822492291506,-707.5036752235408,825.8389761521959,-1533.3426513757365,191.0,1.1672575070246332,-2359.1816275279325,-1576.2261087175052,-6.329840379172581,1.0,False,False,,validation_net<=0
272,pair_trading,XLK_top20_cleaned,XLK-APH,kalman_lagged,zscore,kalman_lagged,aggressive_cross,0.0,0.0,1.5,0.5,120.0,,0.15406667837735122,0.8365306258662117,209.42845701361068,-62.35623555597501,189.22602871474035,-251.5822642707152,52.0,3.0345967332309334,-603.7051466908388,774.587337932164,-1378.2924846230028,195.0,1.2830557138331555,-2152.8798225551673,-1493.7597623865272,-5.714459241109312,1.0,False,False,,validation_net<=0
512,pair_trading,XLK_top20_cleaned,XLK-APH,passive_stress,zscore,ols,passive_entry_stress,0.5,0.5,1.5,0.5,120.0,,0.16594094121884617,0.8365306258662117,228.08139773052142,283.9648618873968,94.09512982027786,189.86973206711883,54.0,0.3313618776452358,-625.4827741710837,380.60600848996756,-1006.0887826610513,181.0,0.608499584971565,-1386.6947911510188,-1396.2057673409718,-4.242890723817876,1.0,False,False,,2x_cost_net<0
392,pair_trading,XLK_top20_cleaned,XLK-APH,sscore_ou_gate,sscore,ols,aggressive_cross,0.0,0.0,1.5,0.5,120.0,,0.16594094121884617,0.8365306258662117,228.08139773052142,239.56905405429842,288.96718549113746,-49.39813143683892,56.0,1.2061957944937367,-363.4981677525746,536.7589092173208,-900.2570769698954,148.0,1.4766481837748384,-1437.0159861872162,-957.1219371476892,-4.165497157288414,1.0,False,False,,validation_net<=0
23,pair_trading,XLK_top20_cleaned,XLK-AVGO,baseline,zscore,ols,aggressive_cross,0.0,0.0,2.0,0.5,120.0,,0.1460693017072228,0.0768712027156273,199.77179405295615,-97.5604582771365,116.98109629546755,-214.54155457260399,40.0,1.1990625952490253,-8.078529212347929,279.95367983615733,-288.03220904850514,115.0,34.654040664760075,-567.9858888846625,-416.4583351449617,-1.5683661041942498,1.0,False,False,,validation_net<=0
128,pair_trading,XLK_top20_cleaned,XLK-AVGO,coint_filter,zscore,ols,aggressive_cross,0.0,0.0,2.0,0.5,120.0,,0.1460693017072228,0.0768712027156273,199.77179405295615,-97.5604582771365,116.98109629546755,-214.54155457260399,40.0,1.1990625952490253,-8.078529212347929,279.95367983615733,-288.03220904850514,115.0,34.654040664760075,-567.9858888846625,-416.4583351449617,-1.5683661041942498,1.0,False,False,,validation_net<=0
523,pair_trading,XLK_top20_cleaned,XLK-AVGO,combined,sscore,kalman_lagged,passive_entry_stress,0.5,0.5,2.0,0.5,120.0,,0.1201542430341937,0.0768712027156273,183.7871439288373,-125.1210792519954,78.48654701619651,-203.60762626819198,32.0,0.6272847667667862,-489.410074442449,162.53597501247145,-651.9460494549205,68.0,0.33210590361801895,-814.482024467392,-686.9705831602521,-4.384698072522214,1.0,False,False,,validation_net<=0
178,pair_trading,XLK_top20_cleaned,XLK-AVGO,kalman_lagged,zscore,kalman_lagged,aggressive_cross,0.0,0.0,2.0,0.5,120.0,,0.1201542430341937,0.0768712027156273,183.7871439288373,-145.44482773749576,105.3508842754285,-250.7957120129243,32.0,0.7243357217595231,33.746183337761835,462.6366337060862,-428.8904503683244,128.0,13.709302443941795,-891.5270840744105,-516.3063512670116,-2.229844012762896,1.0,False,False,,validation_net<=0
418,pair_trading,XLK_top20_cleaned,XLK-AVGO,passive_stress,zscore,ols,passive_entry_stress,0.5,0.5,2.0,0.5,120.0,,0.1460693017072228,0.0768712027156273,199.77179405295615,-24.43654149883172,83.46924558645122,-107.9057870852829,38.0,3.4157552774168876,-52.894563579881634,155.65984907245223,-208.55441265233387,111.0,2.9428326568452343,-364.21426172478624,-256.3237452890648,-1.1574697990754983,1.0,False,False,,validation_net<=0
294,pair_trading,XLK_top20_cleaned,XLK-AVGO,sscore_ou_gate,sscore,ols,aggressive_cross,0.0,0.0,1.0,0.5,120.0,,0.1460693017072228,0.0768712027156273,199.77179405295615,264.57051805851216,415.30588089508285,-150.73536283657063,106.0,1.5697360535206504,-12.804142281585412,692.706923807632,-705.5110660892174,239.0,54.100220739023285,-1398.217989896849,-980.6604585062244,-2.9429552974979303,1.0,False,False,,validation_net<=0
46,pair_trading,XLK_top20_cleaned,XLK-CSCO,baseline,zscore,ols,aggressive_cross,0.0,0.0,2.0,0.5,120.0,4.0,0.3205828327940572,0.7699862889737213,229.17793265691677,-32.86427273888703,96.42127706887608,-129.28554980776312,38.0,2.9339239555051675,-216.2406973905415,282.9776467024454,-499.2183440929869,104.0,1.3086234465447253,-782.1959907954322,-608.9160042097546,-3.011699166675968,1.0,False,False,,validation_net<=0
202,pair_trading,XLK_top20_cleaned,XLK-CSCO,kalman_lagged,zscore,kalman_lagged,aggressive_cross,0.0,0.0,2.0,0.5,120.0,,0.3066415117168932,0.7699862889737213,219.4775597758778,-364.54068422555224,69.91827093177932,-434.4589551573316,36.0,0.1917982654811686,239.6212410943837,279.7969216787116,-40.17568058432793,98.0,1.1676632689190656,-319.97260226303956,-87.44773405029646,-0.23864411143152148,1.0,False,False,,validation_net<=0
442,pair_trading,XLK_top20_cleaned,XLK-CSCO,passive_stress,zscore,ols,passive_entry_stress,0.5,0.5,2.0,0.5,120.0,,0.3205828327940572,0.7699862889737213,229.17793265691677,106.83019569711554,84.40611622082616,22.42407947628939,38.0,0.790096055427381,-216.11808274579946,122.90255892090508,-339.02064166670453,88.0,0.568682441373795,-461.9232005876096,-558.9553217904049,-2.1145486465190753,1.0,False,False,,cost_share>=0.75
321,pair_trading,XLK_top20_cleaned,XLK-CSCO,sscore_ou_gate,sscore,ols,aggressive_cross,0.0,0.0,2.0,0.5,120.0,4.0,0.3205828327940572,0.7699862889737213,229.17793265691677,259.5225310708139,64.95526028535498,194.56727078545896,36.0,0.2502875569891508,-283.7236558778819,264.61526215728816,-548.3389180351701,90.0,0.9326513904472659,-812.9541801924582,-620.2031331453468,-3.5350575601268677,1.0,False,False,,2x_cost_net<0
88,pair_trading,XLK_top20_cleaned,XLK-IBM,baseline,zscore,ols,aggressive_cross,0.0,0.0,2.0,0.5,120.0,4.0,0.09888069889352176,0.5055174067090747,234.20610087538304,-91.50245754369787,95.63714276809289,-187.13960031179076,40.0,1.045186603020148,-12.948881599549322,238.3067967459703,-251.25567834551967,100.0,18.40365864139683,-489.56247509149,-347.2291853551326,-1.3635635607939414,1.0,False,False,,validation_net<=0
244,pair_trading,XLK_top20_cleaned,XLK-IBM,kalman_lagged,zscore,kalman_lagged,aggressive_cross,0.0,0.0,2.0,0.5,120.0,,0.08466075644668838,0.5055174067090747,231.05883169869344,36.24696803204441,140.05465598781234,-103.80768795576792,38.0,3.8638998954063126,-24.533086344831894,278.92847576483194,-303.4615621096639,92.0,11.36948168054651,-582.3900378744958,-398.3034747007542,-1.7416963624943524,1.0,False,False,,validation_net<=0
482,pair_trading,XLK_top20_cleaned,XLK-IBM,passive_stress,zscore,ols,passive_entry_stress,0.5,0.5,1.5,0.5,120.0,,0.09888069889352176,0.5055174067090747,234.20610087538304,-0.45576583958373273,93.56946282997465,-94.0252286695583,60.0,205.3016147841071,66.42873166083037,279.73346681971043,-213.30473515888002,197.0,4.211031278573319,-493.03820197859045,-473.9014271049863,-0.882917707631099,1.0,False,False,,validation_net<=0
364,pair_trading,XLK_top20_cleaned,XLK-IBM,sscore_ou_gate,sscore,ols,aggressive_cross,0.0,0.0,2.0,0.5,120.0,,0.09888069889352176,0.5055174067090747,234.20610087538304,-51.551408050042724,131.68823829034503,-183.23964634038782,44.0,2.5545032283601397,-211.6479046459751,271.77160904060344,-483.41951368657857,92.0,1.2840741773238797,-755.1911227271821,-390.2227039215692,-2.7655179421837275,1.0,False,False,,validation_net<=0
40,pair_trading,XLK_top20_cleaned,XLK-INTC,baseline,zscore,ols,aggressive_cross,0.0,0.0,2.0,0.5,120.0,4.0,0.183482887849806,0.7227834737386631,236.5078132152961,238.58498300095593,61.30086321600644,177.28411978494952,30.0,0.25693512829246606,-49.51900335754883,241.30315880220775,-290.82216215975654,102.0,4.872940536785314,-532.1253209619643,-348.58303658936785,-1.7839261264454171,1.0,False,False,,2x_cost_net<0
195,pair_trading,XLK_top20_cleaned,XLK-INTC,kalman_lagged,zscore,kalman_lagged,aggressive_cross,0.0,0.0,2.0,0.5,120.0,4.0,0.17271439050481224,0.7227834737386631,197.99916345148714,-195.5760276635561,119.82149297353821,-315.3975206370943,38.0,0.6126594061909455,177.70942199874926,321.8637453192722,-144.15432332052302,104.0,1.8111799683954715,-466.0180686397952,-150.4735297678089,-0.8914591775473243,1.0,False,False,,validation_net<=0
435,pair_trading,XLK_top20_cleaned,XLK-INTC,passive_stress,zscore,ols,passive_entry_stress,0.5,0.5,2.0,0.5,120.0,4.0,0.183482887849806,0.7227834737386631,236.5078132152961,300.4298729624695,41.118448835691275,259.3114241267783,30.0,0.13686538036391574,-48.38825895042923,151.12300065820904,-199.51125960863823,96.0,3.1231336678805737,-350.6342602668473,-259.13356285814814,-1.2907880564270653,1.0,False,False,,2x_cost_net<0
312,pair_trading,XLK_top20_cleaned,XLK-INTC,sscore_ou_gate,sscore,ols,aggressive_cross,0.0,0.0,1.0,0.5,120.0,,0.183482887849806,0.7227834737386631,236.5078132152961,244.4737734712152,219.78855518383133,24.685218287383847,96.0,0.8990271310624232,104.95251663175067,588.1923813113059,-483.2398646795551,236.0,5.604366623957291,-1071.432245990861,-661.5692500678772,-2.209883698440372,1.0,False,False,,cost_share>=0.75
82,pair_trading,XLK_top20_cleaned,XLK-KLAC,baseline,zscore,ols,aggressive_cross,0.0,0.0,2.0,0.5,120.0,4.0,0.09684657338915938,0.20415231288606434,211.91126928030013,90.65569732252706,139.2582782067233,-48.602580884196215,38.0,1.5361227404305562,-91.8611103391826,453.6231666126174,-545.4842769518,109.0,4.938141558900014,-999.1074435644173,-637.7941083303784,-2.8534004006761102,1.0,False,False,,validation_net<=0
236,pair_trading,XLK_top20_cleaned,XLK-KLAC,kalman_lagged,zscore,kalman_lagged,aggressive_cross,0.0,0.0,1.5,0.5,120.0,,0.07228849230119708,0.20415231288606434,200.46157106128695,38.34489399149821,385.9797115058033,-347.6348175143052,62.0,10.06600022395113,-591.9668222313376,918.3412134774181,-1510.3080357087556,207.0,1.551338992303415,-2428.649249186174,-1654.691776975182,-6.0508795373543025,1.0,False,False,,validation_net<=0
477,pair_trading,XLK_top20_cleaned,XLK-KLAC,passive_stress,zscore,ols,passive_entry_stress,0.5,0.5,2.0,0.5,120.0,4.0,0.09684657338915938,0.20415231288606434,211.91126928030013,156.22459944841984,81.10434342691663,75.12025602150322,36.0,0.51915219314545,-86.44479602827042,247.6890780643829,-334.1338740926534,103.0,2.8652861646336705,-581.8229521570363,-537.428000160534,-1.7787622359453321,1.0,False,False,,2x_cost_net<0
358,pair_trading,XLK_top20_cleaned,XLK-KLAC,sscore_ou_gate,sscore,ols,aggressive_cross,0.0,0.0,2.0,0.5,120.0,,0.09684657338915938,0.20415231288606434,211.91126928030013,-21.961533603999218,157.91961186785088,-179.88114547185012,40.0,7.190736982006282,-351.6201519667669,380.8175432448632,-732.4376952116302,86.0,1.0830367403994976,-1113.2552384564933,-750.7119337048567,-4.404024552762578,1.0,False,False,,validation_net<=0
57,pair_trading,XLK_top20_cleaned,XLK-LRCX,baseline,zscore,ols,aggressive_cross,0.0,0.0,1.5,0.5,120.0,,0.17977997194016287,0.8336242722019149,191.77341986153473,64.45214789731503,226.2905615190754,-161.83841362176037,54.0,3.5109855745940517,-793.023448758084,939.2755721159116,-1732.2990208739955,217.0,1.1844234537917713,-2671.574592989907,-1936.1830094826548,-6.973626795638454,1.0,False,False,,validation_net<=0
213,pair_trading,XLK_top20_cleaned,XLK-LRCX,kalman_lagged,zscore,kalman_lagged,aggressive_cross,0.0,0.0,2.0,0.5,120.0,4.0,0.1637495544317184,0.8336242722019149,178.9987127363511,107.24101245772161,93.86900731805949,13.372005139662136,26.0,0.8753088502877212,-182.32361135850073,513.2729800953371,-695.5965914538378,106.0,2.8151755895515613,-1208.869571549175,-699.9251105377316,-3.7278406379265823,1.0,False,False,,cost_share>=0.75
454,pair_trading,XLK_top20_cleaned,XLK-LRCX,passive_stress,zscore,ols,passive_entry_stress,0.5,0.5,2.0,0.5,120.0,,0.17977997194016287,0.8336242722019149,191.77341986153473,21.22078314353633,51.54259504950607,-30.321811905969774,36.0,2.428873369134141,-156.106031813254,217.501653582541,-373.60768539579493,104.0,1.3932943593283644,-591.109338978336,-705.5997029736654,-2.0458195242730466,1.0,False,False,,validation_net<=0
334,pair_trading,XLK_top20_cleaned,XLK-LRCX,sscore_ou_gate,sscore,ols,aggressive_cross,0.0,0.0,2.0,0.5,120.0,,0.17977997194016287,0.8336242722019149,191.77341986153473,141.12372052941927,206.17222017518787,-65.04849964576854,42.0,1.4609324314987027,99.62324297590523,437.84424481253194,-338.2210018366268,102.0,4.39500092281104,-776.0652466491587,-339.5891519512225,-1.878756267373181,1.0,False,False,,validation_net<=0
17,pair_trading,XLK_top20_cleaned,XLK-MSFT,baseline,zscore,ols,aggressive_cross,0.0,0.0,2.0,0.5,120.0,,0.09890189312907406,0.2977819522775341,241.53562168395032,22.78183622256208,65.29524338294816,-42.51340716038617,30.0,2.8661097703038863,-60.31170447018588,249.25607962561222,-309.5677840957982,110.0,4.132797801276333,-558.8238637214104,-357.33234580323915,-1.6036897838531863,1.0,False,False,,validation_net<=0
172,pair_trading,XLK_top20_cleaned,XLK-MSFT,kalman_lagged,zscore,kalman_lagged,aggressive_cross,0.0,0.0,2.0,0.5,120.0,,0.08924998178728798,0.2977819522775341,222.94252116231624,-136.57397174449588,105.82296368259811,-242.39693542709404,36.0,0.7748399078601368,69.2877258472553,300.0859935517086,-230.79826770445322,106.0,4.3310123096441036,-530.884261256162,-210.08679590826466,-1.2488601826426968,1.0,False,False,,validation_net<=0
412,pair_trading,XLK_top20_cleaned,XLK-MSFT,passive_stress,zscore,ols,passive_entry_stress,0.5,0.5,2.0,0.5,120.0,,0.09890189312907406,0.2977819522775341,241.53562168395032,38.5131606000074,52.57050963103168,-14.05734903102432,30.0,1.3650011791299617,75.54358079726354,131.55146319953448,-56.007882402270944,104.0,1.7413983003079958,-187.55934560180543,-272.7114953238559,-0.2987192399008578,1.0,False,False,,validation_net<=0
292,pair_trading,XLK_top20_cleaned,XLK-MSFT,sscore_ou_gate,sscore,ols,aggressive_cross,0.0,0.0,2.0,0.5,120.0,,0.09890189312907406,0.2977819522775341,241.53562168395032,-27.85350857466103,91.332072258887,-119.18558083354804,36.0,3.279014994253681,-239.2138454320637,265.36492285202104,-504.57876828408484,72.0,1.1093209189991646,-769.9436911361057,-427.43078663971505,-3.0785157871914275,1.0,False,False,,validation_net<=0
28,pair_trading,XLK_top20_cleaned,XLK-MU,baseline,zscore,ols,aggressive_cross,0.0,0.0,2.0,0.5,120.0,4.0,0.1582443979810445,0.7709219780992628,188.88487227975978,-8.988055498133466,142.15382674090029,-151.1418822390338,44.0,15.815859923252713,-314.6799390833782,366.86313786377866,-681.5430769471567,99.0,1.1658294422339197,-1048.4062148109354,-744.6802860463333,-3.965421505553822,1.0,False,False,,validation_net<=0
181,pair_trading,XLK_top20_cleaned,XLK-MU,kalman_lagged,zscore,kalman_lagged,aggressive_cross,0.0,0.0,1.5,0.5,120.0,4.0,0.13795839680072597,0.7709219780992628,180.0213578542554,-249.94046423063332,215.5556423638005,-465.49610659443385,60.0,0.8624279507014754,-294.9402941198203,776.4950779577883,-1071.435372077609,215.0,2.632719548459985,-1847.9304500353971,-1151.6877901062503,-4.584795208855872,1.0,False,False,,validation_net<=0
423,pair_trading,XLK_top20_cleaned,XLK-MU,passive_stress,zscore,ols,passive_entry_stress,0.5,0.5,2.0,0.5,120.0,4.0,0.1582443979810445,0.7709219780992628,188.88487227975978,10.515802980009102,64.66061581978197,-54.14481283977278,44.0,6.148899512733739,-314.78069951618806,168.66574023808133,-483.44643975426953,98.0,0.5358198278907105,-652.1121799923509,-651.7846580617111,-2.8741162293589753,1.0,False,False,,validation_net<=0
302,pair_trading,XLK_top20_cleaned,XLK-MU,sscore_ou_gate,sscore,ols,aggressive_cross,0.0,0.0,1.5,0.5,120.0,,0.1582443979810445,0.7709219780992628,188.88487227975978,-141.76367771607985,225.052108287614,-366.81578600369386,70.0,1.5875160119529474,-27.042597113589366,511.2953257525017,-538.337922866091,149.0,18.907034838586828,-1049.633248618593,-704.8920143339191,-2.616607012961977,1.0,False,False,,validation_net<=0
4,pair_trading,XLK_top20_cleaned,XLK-NVDA,baseline,zscore,ols,aggressive_cross,0.0,0.0,2.0,0.5,120.0,4.0,0.3337749645659467,0.46185850937126405,162.55641808859653,36.689104694404755,98.77589291158331,-62.086788217178494,36.0,2.6922404821354786,-524.6634684299216,564.0108896561833,-1088.674358086105,177.0,1.0749955420834054,-1652.6852477422879,-1006.2143502984876,-6.7348488369669255,1.0,False,False,,validation_net<=0
159,pair_trading,XLK_top20_cleaned,XLK-NVDA,kalman_lagged,zscore,kalman_lagged,aggressive_cross,0.0,0.0,2.0,0.5,120.0,4.0,0.31758231487416755,0.46185850937126405,162.20423739760724,235.16550528597176,127.75280297694269,107.4127023090291,34.0,0.5432463524851979,-325.28774893519187,607.188810344098,-932.4765592792896,195.0,1.8666205915583687,-1539.6653696233875,-952.4911626240223,-5.641777232875391,1.0,False,False,,2x_cost_net<0
395,pair_trading,XLK_top20_cleaned,XLK-NVDA,passive_stress,zscore,ols,passive_entry_stress,0.5,0.5,1.0,0.5,120.0,4.0,0.3337749645659467,0.46185850937126405,162.55641808859653,142.2171893897472,116.75076900542287,25.466420384324362,88.0,0.8209328950065703,-135.04418503119606,621.5403160446256,-756.5845010758215,317.0,4.602495960126279,-1378.1248171204475,-1316.6104453354324,-3.3157513644073644,1.0,False,False,,cost_share>=0.75
278,pair_trading,XLK_top20_cleaned,XLK-NVDA,sscore_ou_gate,sscore,ols,aggressive_cross,0.0,0.0,1.5,0.5,120.0,,0.3337749645659467,0.46185850937126405,162.55641808859653,111.28795649070143,187.4098804176205,-76.12192392691905,66.0,1.6840086414317381,-322.56291491951424,423.6775127554242,-746.2404276749384,153.0,1.3134724829143487,-1169.9179404303625,-698.430923247852,-3.92906322360041,1.0,False,False,,validation_net<=0
71,pair_trading,XLK_top20_cleaned,XLK-ORCL,baseline,zscore,ols,aggressive_cross,0.0,0.0,2.0,0.5,120.0,,0.11882894568938178,0.05799809212512568,213.28375926186595,151.8856964620676,80.84281395738277,71.0428825046848,36.0,0.5322608767019263,22.926424338075222,186.0940628286098,-163.1676384905345,99.0,8.117012059292332,-349.2617013191443,-254.32896505441414,-0.9422199732301201,1.0,False,False,,2x_cost_net<0
141,pair_trading,XLK_top20_cleaned,XLK-ORCL,coint_filter,zscore,ols,aggressive_cross,0.0,0.0,2.0,0.5,120.0,,0.11882894568938178,0.05799809212512568,213.28375926186595,151.8856964620676,80.84281395738277,71.0428825046848,36.0,0.5322608767019263,22.926424338075222,186.0940628286098,-163.1676384905345,99.0,8.117012059292332,-349.2617013191443,-254.32896505441414,-0.9422199732301201,1.0,False,False,,2x_cost_net<0
536,pair_trading,XLK_top20_cleaned,XLK-ORCL,combined,sscore,kalman_lagged,passive_entry_stress,0.5,0.5,2.0,0.5,120.0,,0.1016056314337366,0.05799809212512568,204.43973943905473,120.7149636456988,77.48132852401008,43.23363512168865,42.0,0.6418535547210167,-94.76301874311184,137.42749490427315,-232.19051364738496,82.0,1.4502228477632,-369.6180085516581,-252.23572470129872,-1.3731730345622162,1.0,False,False,,2x_cost_net<0
225,pair_trading,XLK_top20_cleaned,XLK-ORCL,kalman_lagged,zscore,kalman_lagged,aggressive_cross,0.0,0.0,2.0,0.5,120.0,4.0,0.1016056314337366,0.05799809212512568,204.43973943905473,61.932659765712025,129.9262214551565,-67.99356168944456,38.0,2.0978627746113365,86.59548301580402,223.03937197920027,-136.44388896339615,97.0,2.575646722110144,-359.4832609425966,-282.81104286824683,-0.8011169847672901,1.0,False,False,,validation_net<=0
464,pair_trading,XLK_top20_cleaned,XLK-ORCL,passive_stress,zscore,ols,passive_entry_stress,0.5,0.5,1.5,0.5,120.0,,0.11882894568938178,0.05799809212512568,213.28375926186595,34.534172625164395,90.48172511904828,-55.94755249388388,58.0,2.620063497716924,-157.0660911589018,256.6726504503211,-413.73874160922264,175.0,1.6341697215260078,-670.4113920595437,-690.9063987726419,-1.8549708953794741,1.0,False,False,,validation_net<=0
346,pair_trading,XLK_top20_cleaned,XLK-ORCL,sscore_ou_gate,sscore,ols,aggressive_cross,0.0,0.0,2.0,0.5,120.0,,0.11882894568938178,0.05799809212512568,213.28375926186595,183.7113600853795,95.89323469558401,87.81812538979548,34.0,0.5219777081342047,-457.7219734656069,204.64400297415958,-662.3659764397664,72.0,0.4470923723078295,-867.0099794139261,-720.0185856132273,-4.0877413810407965,1.0,False,False,,2x_cost_net<0
50,pair_trading,XLK_top20_cleaned,XLK-PLTR,baseline,zscore,ols,aggressive_cross,0.0,0.0,1.5,0.5,120.0,4.0,0.15936779763197223,0.3283475828923219,198.0095982893696,262.4257006072282,181.81876996224676,80.60693064498157,56.0,0.6928390380268982,-384.06617401712003,595.1377558269445,-979.2039298440646,197.0,1.5495708710874803,-1574.3416856710091,-1162.418254355105,-4.285592699244524,1.0,False,False,,2x_cost_net<0
207,pair_trading,XLK_top20_cleaned,XLK-PLTR,kalman_lagged,zscore,kalman_lagged,aggressive_cross,0.0,0.0,2.0,0.5,120.0,4.0,0.13274093108975588,0.3283475828923219,171.66878490285697,-92.55904695495795,102.5717643382637,-195.13081129322165,34.0,1.1081765393303828,-179.76127100518025,215.0681940759239,-394.8294650811042,80.0,1.1964100658240573,-609.8976591570281,-423.04063851190966,-2.5868762167230948,1.0,False,False,,validation_net<=0
445,pair_trading,XLK_top20_cleaned,XLK-PLTR,passive_stress,zscore,ols,passive_entry_stress,0.5,0.5,1.5,0.5,120.0,4.0,0.15936779763197223,0.3283475828923219,198.0095982893696,359.5296116800153,90.56023155808907,268.9693801219262,54.0,0.25188532075262976,-339.6933668478199,315.29629575218627,-654.9896626000061,187.0,0.9281791360189752,-970.2859583521923,-971.4798378235637,-2.9467255352798483,1.0,False,False,,2x_cost_net<0
324,pair_trading,XLK_top20_cleaned,XLK-PLTR,sscore_ou_gate,sscore,ols,aggressive_cross,0.0,0.0,1.0,0.5,120.0,,0.15936779763197223,0.3283475828923219,198.0095982893696,379.7216431250998,285.9077507609873,93.81389236411256,108.0,0.7529403602280175,-577.4927233753663,751.1677989737756,-1328.6605223491422,259.0,1.3007398510292947,-2079.828321322918,-1353.5638825991189,-5.45599807235539,1.0,False,False,,cost_share>=0.75
100,pair_trading,XLK_top20_cleaned,XLK-QCOM,baseline,zscore,ols,aggressive_cross,0.0,0.0,2.0,0.5,120.0,4.0,0.12712945076113996,0.29771453604037246,223.7299624308779,-64.9695433353902,84.67222654844755,-149.6417698838377,36.0,1.3032603001585963,88.26741004249759,264.1084865656681,-175.84107652317044,108.0,2.9921404336947166,-439.9495630888386,-266.7400619375263,-0.9599020678182577,1.0,False,False,,validation_net<=0
255,pair_trading,XLK_top20_cleaned,XLK-QCOM,kalman_lagged,zscore,kalman_lagged,aggressive_cross,0.0,0.0,2.0,0.5,120.0,4.0,0.12066888203098605,0.29771453604037246,188.57708809674983,-223.9178271829072,145.61385225039191,-369.5316794332991,40.0,0.6503003985093483,-496.68647436013083,323.35644843181274,-820.0429227919434,90.0,0.6510272880862823,-1143.399371223756,-812.1569895839116,-4.82478928153864,1.0,False,False,,validation_net<=0
495,pair_trading,XLK_top20_cleaned,XLK-QCOM,passive_stress,zscore,ols,passive_entry_stress,0.5,0.5,2.0,0.5,120.0,4.0,0.12712945076113996,0.29771453604037246,223.7299624308779,-10.550488321062101,68.87019655700087,-79.42068487806296,36.0,6.527678573845178,2.7746512048190763,171.64149477803304,-168.86684357321386,104.0,61.86056628664613,-340.5083383512469,-198.94613875984376,-0.9441825016384883,1.0,False,False,,validation_net<=0
376,pair_trading,XLK_top20_cleaned,XLK-QCOM,sscore_ou_gate,sscore,ols,aggressive_cross,0.0,0.0,2.0,0.5,120.0,,0.12712945076113996,0.29771453604037246,223.7299624308779,-220.14633586249317,104.7827505760621,-324.92908643855526,44.0,0.47596863316185756,-410.234208285308,235.69449238477435,-645.9287006700823,82.0,0.5745364175501778,-881.6231930548565,-656.2193196574352,-3.9246425987289553,1.0,False,False,,validation_net<=0
110,pair_trading,XLK_top20_cleaned,XLK-SNDK,baseline,zscore,ols,aggressive_cross,0.0,0.0,1.5,0.5,120.0,4.0,0.05944709609979738,0.899991533643907,224.93621368182767,74.2880149792462,191.14984032737422,-116.86182534812795,64.0,2.5730912365982004,-518.4805616137338,614.9397100316642,-1133.420271645398,215.0,1.1860419764199224,-1748.3599816770623,-1305.7558129527574,-4.5539789104036394,1.0,False,False,,validation_net<=0
267,pair_trading,XLK_top20_cleaned,XLK-SNDK,kalman_lagged,zscore,kalman_lagged,aggressive_cross,0.0,0.0,2.0,0.5,120.0,4.0,0.03695038376325518,0.899991533643907,225.9975131456135,216.62864967374736,125.58366739522268,91.04498227852461,30.0,0.5797186456378572,-455.8113774561504,475.12457031404944,-930.9359477701997,129.0,1.042371019709259,-1406.0605180842495,-923.5253495504684,-4.691360222967372,1.0,False,False,,2x_cost_net<0
506,pair_trading,XLK_top20_cleaned,XLK-SNDK,passive_stress,zscore,ols,passive_entry_stress,0.5,0.5,1.5,0.5,120.0,,0.05944709609979738,0.899991533643907,224.93621368182767,43.07188663757223,87.15230769404229,-44.08042105647006,58.0,2.0234151437893617,-540.3067982108396,353.4894867981407,-893.7962850089804,207.0,0.654238458536295,-1247.285771807121,-1166.403931550983,-3.6886326143398542,1.0,False,False,,validation_net<=0
388,pair_trading,XLK_top20_cleaned,XLK-SNDK,sscore_ou_gate,sscore,ols,aggressive_cross,0.0,0.0,2.0,0.5,120.0,,0.05944709609979738,0.899991533643907,224.93621368182767,26.301960635974325,164.98356126798583,-138.68160063201145,44.0,6.272671590966139,-331.5087293451649,248.79509626683998,-580.3038256120049,64.0,0.7504933482695595,-829.0989218788447,-525.7265684076423,-3.707229602424242,1.0,False,False,,validation_net<=0
76,pair_trading,XLK_top20_cleaned,XLK-TXN,baseline,zscore,ols,aggressive_cross,0.0,0.0,2.0,0.5,120.0,4.0,0.12914434767331914,0.2693081721383044,235.64395905028076,2.532611363990772,117.6888289800207,-115.15621761602996,36.0,46.46935990785893,-127.81427150286618,334.22026500971634,-462.03453651258246,102.0,2.614890035986487,-796.254801522299,-461.12074524335577,-2.44636204831562,1.0,False,False,,validation_net<=0
231,pair_trading,XLK_top20_cleaned,XLK-TXN,kalman_lagged,zscore,kalman_lagged,aggressive_cross,0.0,0.0,2.0,0.5,120.0,4.0,0.12121947459663353,0.2693081721383044,213.05026392345474,-161.4412349609326,146.12235919948967,-307.5635941604222,32.0,0.9051117531084919,22.737496351150668,499.98582179475005,-477.24832544359947,116.0,21.989484421377266,-977.2341472383496,-412.43171970820674,-2.4330842405122546,1.0,False,False,,validation_net<=0
471,pair_trading,XLK_top20_cleaned,XLK-TXN,passive_stress,zscore,ols,passive_entry_stress,0.5,0.5,2.0,0.5,120.0,4.0,0.12914434767331914,0.2693081721383044,235.64395905028076,40.926486680246974,85.84819857681964,-44.92171189657269,36.0,2.0976195500859833,75.93994889003379,134.77464826961503,-58.83469937958126,98.0,1.7747529493966065,-193.60934764919637,-364.42212058822616,-0.32404326376902215,1.0,False,False,,validation_net<=0
352,pair_trading,XLK_top20_cleaned,XLK-TXN,sscore_ou_gate,sscore,ols,aggressive_cross,0.0,0.0,2.0,0.5,120.0,,0.12914434767331914,0.2693081721383044,235.64395905028076,-172.50664001004813,207.21743514506898,-379.72407515511725,46.0,1.2012142554802472,-220.43889815831386,324.3486161767419,-544.7875143350558,70.0,1.4713765078965448,-869.1361305117979,-602.3848030948097,-3.450671642379437,1.0,False,False,,validation_net<=0
